IP_Addresss,target_onset,trial_resp_sp.keys,trial_resp_sp.corr,trial_resp_sp.rt,trials_train_loop.thisRepN,trials_train_loop.thisTrialN,trials_train_loop.thisN,trials_train_loop.thisIndex,trials_train_loop.ran,pic,correct_key,participant,date,expName,psychopyVersion,OS,frameRate,trial_resp_timing.keys,trial_resp_timing.rt,trials_train_timing.thisRepN,trials_train_timing.thisTrialN,trials_train_timing.thisN,trials_train_timing.thisIndex,trials_train_timing.ran,block_id,ontime,forcedRT_resp.keys,forcedRT_resp.corr,forcedRT_resp.rt,trials.thisRepN,trials.thisTrialN,trials.thisN,trials.thisIndex,trials.ran,blocks.thisRepN,blocks.thisTrialN,blocks.thisN,blocks.thisIndex,blocks.ran,RT,PT,PT_scale,accuracy,key,stim,acc00,acc0,time0,key0,stim0,y,exp,err00,err0,time,key_rep,stim_rep,key_stim_rep,time_rep
NA,1.45,NA,NA,NA,NA,NA,NA,NA,NA,j.PNG,j,573dacc5b3a71f00146e7d88,2021-10-19_12h53.18.170,forced_choiceRT,2021.1.2,Linux x86_64,60.0348202,NA,NA,NA,NA,NA,NA,NA,1,Ontime,j,1,2.0239,0,3,3,3,1,NA,NA,NA,NA,NA,2023.8999999999999,286.94999999999993,2,1,j,j,1,0,256.49999999999994,f,h,1,memory2,-0.5,0.5,0.2869499999999999,FALSE,FALSE,FALSE,FALSE
NA,1.2,NA,NA,NA,NA,NA,NA,NA,NA,h.PNG,h,573dacc5b3a71f00146e7d88,2021-10-19_12h53.18.170,forced_choiceRT,2021.1.2,Linux x86_64,60.0348202,NA,NA,NA,NA,NA,NA,NA,1,Ontime,h,1,1.9779,1,0,4,2,1,NA,NA,NA,NA,NA,1977.9,388.95000000000005,2,1,h,h,0,1,286.94999999999993,j,j,1,memory2,0.5,-0.5,0.38895,FALSE,FALSE,FALSE,FALSE
NA,1.18,NA,NA,NA,NA,NA,NA,NA,NA,j.PNG,j,573dacc5b3a71f00146e7d88,2021-10-19_12h53.18.170,forced_choiceRT,2021.1.2,Linux x86_64,60.0348202,NA,NA,NA,NA,NA,NA,NA,1,Ontime,j,1,1.9212,1,1,5,3,1,NA,NA,NA,NA,NA,1921.2,370.6,2,1,j,j,1,1,388.95000000000005,h,h,1,memory2,-0.5,-0.5,0.37060000000000004,FALSE,FALSE,FALSE,FALSE
NA,0.8,NA,NA,NA,NA,NA,NA,NA,NA,f.PNG,f,573dacc5b3a71f00146e7d88,2021-10-19_12h53.18.170,forced_choiceRT,2021.1.2,Linux x86_64,60.0348202,NA,NA,NA,NA,NA,NA,NA,1,Ontime,f,1,2.053,1,2,6,0,1,NA,NA,NA,NA,NA,2053,626.5,2,1,f,f,1,1,370.6,j,j,1,memory2,-0.5,-0.5,0.6265,FALSE,FALSE,FALSE,FALSE
NA,0.69,NA,NA,NA,NA,NA,NA,NA,NA,h.PNG,h,573dacc5b3a71f00146e7d88,2021-10-19_12h53.18.170,forced_choiceRT,2021.1.2,Linux x86_64,60.0348202,NA,NA,NA,NA,NA,NA,NA,1,Ontime,j,0,1.9312,2,0,8,2,1,NA,NA,NA,NA,NA,1931.2,620.6,2,0,j,h,1,1,883.85,g,g,0,memory2,-0.5,-0.5,0.6206,FALSE,FALSE,FALSE,FALSE
NA,0.57,NA,NA,NA,NA,NA,NA,NA,NA,h.PNG,h,573dacc5b3a71f00146e7d88,2021-10-19_12h53.18.170,forced_choiceRT,2021.1.2,Linux x86_64,60.0348202,NA,NA,NA,NA,NA,NA,NA,1,Ontime,h,1,2.0498,3,0,12,2,1,NA,NA,NA,NA,NA,2049.7999999999997,739.9,2,1,h,h,0,0,255.70000000000005,h,f,1,memory2,0.5,0.5,0.7399,TRUE,FALSE,TRUE,FALSE
NA,1.22,NA,NA,NA,NA,NA,NA,NA,NA,j.PNG,j,573dacc5b3a71f00146e7d88,2021-10-19_12h53.18.170,forced_choiceRT,2021.1.2,Linux x86_64,60.0348202,NA,NA,NA,NA,NA,NA,NA,1,Ontime,j,1,2.0329,3,1,13,3,1,NA,NA,NA,NA,NA,2032.9,406.4500000000001,2,1,j,j,0,1,739.9,h,h,1,memory2,0.5,-0.5,0.4064500000000001,FALSE,FALSE,FALSE,FALSE
NA,1.11,NA,NA,NA,NA,NA,NA,NA,NA,f.PNG,f,573dacc5b3a71f00146e7d88,2021-10-19_12h53.18.170,forced_choiceRT,2021.1.2,Linux x86_64,60.0348202,NA,NA,NA,NA,NA,NA,NA,1,Ontime,f,1,1.9338,3,3,15,0,1,NA,NA,NA,NA,NA,1933.8,411.8999999999999,2,1,f,f,1,1,379.2500000000001,j,j,1,memory2,-0.5,-0.5,0.41189999999999993,FALSE,FALSE,FALSE,FALSE
NA,0.37,NA,NA,NA,NA,NA,NA,NA,NA,j.PNG,j,573dacc5b3a71f00146e7d88,2021-10-19_12h53.18.170,forced_choiceRT,2021.1.2,Linux x86_64,60.0348202,NA,NA,NA,NA,NA,NA,NA,1,Ontime,j,1,2.0332,4,0,16,3,1,NA,NA,NA,NA,NA,2033.1999999999998,831.5999999999999,2,1,j,j,1,1,411.8999999999999,f,f,1,memory2,-0.5,-0.5,0.8315999999999999,FALSE,FALSE,FALSE,FALSE
NA,0.82,NA,NA,NA,NA,NA,NA,NA,NA,h.PNG,h,573dacc5b3a71f00146e7d88,2021-10-19_12h53.18.170,forced_choiceRT,2021.1.2,Linux x86_64,60.0348202,NA,NA,NA,NA,NA,NA,NA,1,Ontime,h,1,1.9991,4,1,17,2,1,NA,NA,NA,NA,NA,1999.1000000000001,589.5500000000001,2,1,h,h,1,1,831.5999999999999,j,j,1,memory2,-0.5,-0.5,0.58955,FALSE,FALSE,FALSE,FALSE
NA,0.37,NA,NA,NA,NA,NA,NA,NA,NA,f.PNG,f,573dacc5b3a71f00146e7d88,2021-10-19_12h53.18.170,forced_choiceRT,2021.1.2,Linux x86_64,60.0348202,NA,NA,NA,NA,NA,NA,NA,1,Ontime,f,1,1.9639,4,2,18,0,1,NA,NA,NA,NA,NA,1963.9,796.95,2,1,f,f,1,1,589.5500000000001,h,h,1,memory2,-0.5,-0.5,0.79695,FALSE,FALSE,FALSE,FALSE
NA,1.16,NA,NA,NA,NA,NA,NA,NA,NA,g.PNG,g,573dacc5b3a71f00146e7d88,2021-10-19_12h53.18.170,forced_choiceRT,2021.1.2,Linux x86_64,60.0348202,NA,NA,NA,NA,NA,NA,NA,1,Ontime,g,1,2.0488,5,0,20,1,1,NA,NA,NA,NA,NA,2048.8,444.40000000000003,2,1,g,g,1,1,271.4000000000001,j,j,1,memory2,-0.5,-0.5,0.4444,FALSE,FALSE,FALSE,FALSE
NA,1.79,NA,NA,NA,NA,NA,NA,NA,NA,j.PNG,j,573dacc5b3a71f00146e7d88,2021-10-19_12h53.18.170,forced_choiceRT,2021.1.2,Linux x86_64,60.0348202,NA,NA,NA,NA,NA,NA,NA,1,Ontime,j,1,2.0068,5,1,21,3,1,NA,NA,NA,NA,NA,2006.8000000000002,108.40000000000005,2,1,j,j,1,1,444.40000000000003,g,g,1,memory2,-0.5,-0.5,0.10840000000000005,FALSE,FALSE,FALSE,FALSE
NA,1.87,NA,NA,NA,NA,NA,NA,NA,NA,h.PNG,h,573dacc5b3a71f00146e7d88,2021-10-19_12h53.18.170,forced_choiceRT,2021.1.2,Linux x86_64,60.0348202,NA,NA,NA,NA,NA,NA,NA,1,Ontime,j,0,2.016,5,3,23,2,1,NA,NA,NA,NA,NA,2016,72.99999999999996,2,0,j,h,1,1,239.35000000000005,f,f,0,memory2,-0.5,-0.5,0.07299999999999995,FALSE,FALSE,FALSE,FALSE
NA,1.73,NA,NA,NA,NA,NA,NA,NA,NA,h.PNG,h,573dacc5b3a71f00146e7d88,2021-10-19_12h53.18.170,forced_choiceRT,2021.1.2,Linux x86_64,60.0348202,NA,NA,NA,NA,NA,NA,NA,1,Ontime,j,0,1.9478,6,0,24,2,1,NA,NA,NA,NA,NA,1947.8,108.89999999999999,2,0,j,h,1,0,72.99999999999996,j,h,0,memory2,-0.5,0.5,0.1089,TRUE,TRUE,FALSE,TRUE
NA,1.23,NA,NA,NA,NA,NA,NA,NA,NA,g.PNG,g,573dacc5b3a71f00146e7d88,2021-10-19_12h53.18.170,forced_choiceRT,2021.1.2,Linux x86_64,60.0348202,NA,NA,NA,NA,NA,NA,NA,1,Ontime,g,1,1.9313,6,1,25,1,1,NA,NA,NA,NA,NA,1931.3,350.65000000000003,2,1,g,g,0,0,108.89999999999999,j,h,1,memory2,0.5,0.5,0.35065,FALSE,FALSE,FALSE,FALSE
NA,0.66,NA,NA,NA,NA,NA,NA,NA,NA,j.PNG,j,573dacc5b3a71f00146e7d88,2021-10-19_12h53.18.170,forced_choiceRT,2021.1.2,Linux x86_64,60.0348202,NA,NA,NA,NA,NA,NA,NA,1,Ontime,j,1,2.0129,6,3,27,3,1,NA,NA,NA,NA,NA,2012.9,676.45,2,1,j,j,1,1,816.8499999999999,f,f,1,memory2,-0.5,-0.5,0.67645,FALSE,FALSE,FALSE,FALSE
NA,0.38,NA,NA,NA,NA,NA,NA,NA,NA,g.PNG,g,573dacc5b3a71f00146e7d88,2021-10-19_12h53.18.170,forced_choiceRT,2021.1.2,Linux x86_64,60.0348202,NA,NA,NA,NA,NA,NA,NA,1,Ontime,g,1,1.9966,7,0,28,1,1,NA,NA,NA,NA,NA,1996.6,808.3000000000001,2,1,g,g,1,1,676.45,j,j,1,memory2,-0.5,-0.5,0.8083,FALSE,FALSE,FALSE,FALSE
NA,1.15,NA,NA,NA,NA,NA,NA,NA,NA,g.PNG,g,573dacc5b3a71f00146e7d88,2021-10-19_12h53.18.170,forced_choiceRT,2021.1.2,Linux x86_64,60.0348202,NA,NA,NA,NA,NA,NA,NA,1,Ontime,g,1,1.984,7,1,29,1,1,NA,NA,NA,NA,NA,1984,417.00000000000006,2,1,g,g,1,1,808.3000000000001,g,g,1,memory2,-0.5,-0.5,0.41700000000000004,TRUE,TRUE,TRUE,FALSE
NA,1.43,NA,NA,NA,NA,NA,NA,NA,NA,g.PNG,g,573dacc5b3a71f00146e7d88,2021-10-19_12h53.18.170,forced_choiceRT,2021.1.2,Linux x86_64,60.0348202,NA,NA,NA,NA,NA,NA,NA,1,Ontime,g,1,2.0831,7,2,30,1,1,NA,NA,NA,NA,NA,2083.1,326.55,2,1,g,g,1,1,417.00000000000006,g,g,1,memory2,-0.5,-0.5,0.32655,TRUE,TRUE,TRUE,FALSE
NA,1.19,NA,NA,NA,NA,NA,NA,NA,NA,h.PNG,h,573dacc5b3a71f00146e7d88,2021-10-19_12h53.18.170,forced_choiceRT,2021.1.2,Linux x86_64,60.0348202,NA,NA,NA,NA,NA,NA,NA,1,Ontime,h,1,2.0229,7,3,31,2,1,NA,NA,NA,NA,NA,2022.8999999999999,416.45,2,1,h,h,1,1,326.55,g,g,1,memory2,-0.5,-0.5,0.41645,FALSE,FALSE,FALSE,FALSE
NA,0.6,NA,NA,NA,NA,NA,NA,NA,NA,h.PNG,h,573dacc5b3a71f00146e7d88,2021-10-19_12h53.18.170,forced_choiceRT,2021.1.2,Linux x86_64,60.0348202,NA,NA,NA,NA,NA,NA,NA,1,Ontime,h,1,2.0671,8,1,33,2,1,NA,NA,NA,NA,NA,2067.1,733.55,2,1,h,h,1,1,439.7,f,f,1,memory2,-0.5,-0.5,0.7335499999999999,FALSE,FALSE,FALSE,FALSE
NA,0.86,NA,NA,NA,NA,NA,NA,NA,NA,j.PNG,j,573dacc5b3a71f00146e7d88,2021-10-19_12h53.18.170,forced_choiceRT,2021.1.2,Linux x86_64,60.0348202,NA,NA,NA,NA,NA,NA,NA,1,Ontime,j,1,2.0487,8,3,35,3,1,NA,NA,NA,NA,NA,2048.7000000000003,594.3500000000001,2,1,j,j,1,1,360.1500000000001,g,g,1,memory2,-0.5,-0.5,0.5943500000000002,FALSE,FALSE,FALSE,FALSE
NA,0.2,NA,NA,NA,NA,NA,NA,NA,NA,g.PNG,g,573dacc5b3a71f00146e7d88,2021-10-19_12h53.18.170,forced_choiceRT,2021.1.2,Linux x86_64,60.0348202,NA,NA,NA,NA,NA,NA,NA,1,Ontime,g,1,2.0238,9,0,36,1,1,NA,NA,NA,NA,NA,2023.8,911.9000000000001,2,1,g,g,1,1,594.3500000000001,j,j,1,memory2,-0.5,-0.5,0.9119,FALSE,FALSE,FALSE,FALSE
NA,0.52,NA,NA,NA,NA,NA,NA,NA,NA,f.PNG,f,573dacc5b3a71f00146e7d88,2021-10-19_12h53.18.170,forced_choiceRT,2021.1.2,Linux x86_64,60.0348202,NA,NA,NA,NA,NA,NA,NA,1,Ontime,f,1,1.9808,9,1,37,0,1,NA,NA,NA,NA,NA,1980.8,730.4,2,1,f,f,1,1,911.9000000000001,g,g,1,memory2,-0.5,-0.5,0.7303999999999999,FALSE,FALSE,FALSE,FALSE
NA,0.83,NA,NA,NA,NA,NA,NA,NA,NA,j.PNG,j,573dacc5b3a71f00146e7d88,2021-10-19_12h53.18.170,forced_choiceRT,2021.1.2,Linux x86_64,60.0348202,NA,NA,NA,NA,NA,NA,NA,1,Ontime,j,1,2.0163,9,2,38,3,1,NA,NA,NA,NA,NA,2016.3000000000002,593.1500000000001,2,1,j,j,1,1,730.4,f,f,1,memory2,-0.5,-0.5,0.5931500000000001,FALSE,FALSE,FALSE,FALSE
NA,1.17,NA,NA,NA,NA,NA,NA,NA,NA,f.PNG,f,573dacc5b3a71f00146e7d88,2021-10-19_12h53.18.170,forced_choiceRT,2021.1.2,Linux x86_64,60.0348202,NA,NA,NA,NA,NA,NA,NA,1,Ontime,f,1,1.9209,9,3,39,0,1,NA,NA,NA,NA,NA,1920.9,375.45000000000005,2,1,f,f,1,1,593.1500000000001,j,j,1,memory2,-0.5,-0.5,0.37545000000000006,FALSE,FALSE,FALSE,FALSE
NA,1.04,NA,NA,NA,NA,NA,NA,NA,NA,f.PNG,f,573dacc5b3a71f00146e7d88,2021-10-19_12h53.18.170,forced_choiceRT,2021.1.2,Linux x86_64,60.0348202,NA,NA,NA,NA,NA,NA,NA,2,Ontime,f,1,2.0285,0,0,0,0,1,NA,NA,NA,NA,NA,2028.5000000000002,494.25000000000006,2,1,f,f,1,1,375.45000000000005,f,f,1,memory2,-0.5,-0.5,0.4942500000000001,TRUE,TRUE,TRUE,FALSE
NA,0.03,NA,NA,NA,NA,NA,NA,NA,NA,g.PNG,g,573dacc5b3a71f00146e7d88,2021-10-19_12h53.18.170,forced_choiceRT,2021.1.2,Linux x86_64,60.0348202,NA,NA,NA,NA,NA,NA,NA,2,Ontime,g,1,1.9465,0,1,1,1,1,NA,NA,NA,NA,NA,1946.5,958.2499999999999,2,1,g,g,1,1,494.25000000000006,f,f,1,memory2,-0.5,-0.5,0.9582499999999999,FALSE,FALSE,FALSE,FALSE
NA,0.23,NA,NA,NA,NA,NA,NA,NA,NA,h.PNG,h,573dacc5b3a71f00146e7d88,2021-10-19_12h53.18.170,forced_choiceRT,2021.1.2,Linux x86_64,60.0348202,NA,NA,NA,NA,NA,NA,NA,2,Ontime,h,1,1.9618,0,2,2,2,1,NA,NA,NA,NA,NA,1961.8,865.9,2,1,h,h,1,1,958.2499999999999,g,g,1,memory2,-0.5,-0.5,0.8659,FALSE,FALSE,FALSE,FALSE
NA,1.41,NA,NA,NA,NA,NA,NA,NA,NA,h.PNG,h,573dacc5b3a71f00146e7d88,2021-10-19_12h53.18.170,forced_choiceRT,2021.1.2,Linux x86_64,60.0348202,NA,NA,NA,NA,NA,NA,NA,2,Ontime,h,1,1.9827,0,3,3,2,1,NA,NA,NA,NA,NA,1982.6999999999998,286.34999999999997,2,1,h,h,1,1,865.9,h,h,1,memory2,-0.5,-0.5,0.28635,TRUE,TRUE,TRUE,FALSE
NA,0.08,NA,NA,NA,NA,NA,NA,NA,NA,g.PNG,g,573dacc5b3a71f00146e7d88,2021-10-19_12h53.18.170,forced_choiceRT,2021.1.2,Linux x86_64,60.0348202,NA,NA,NA,NA,NA,NA,NA,2,Ontime,g,1,1.9031,1,0,4,1,1,NA,NA,NA,NA,NA,1903.1,911.55,2,1,g,g,1,1,286.34999999999997,h,h,1,memory2,-0.5,-0.5,0.91155,FALSE,FALSE,FALSE,FALSE
NA,0.37,NA,NA,NA,NA,NA,NA,NA,NA,j.PNG,j,573dacc5b3a71f00146e7d88,2021-10-19_12h53.18.170,forced_choiceRT,2021.1.2,Linux x86_64,60.0348202,NA,NA,NA,NA,NA,NA,NA,2,Ontime,j,1,1.922,1,1,5,3,1,NA,NA,NA,NA,NA,1922,776,2,1,j,j,1,1,911.55,g,g,1,memory2,-0.5,-0.5,0.776,FALSE,FALSE,FALSE,FALSE
NA,1.19,NA,NA,NA,NA,NA,NA,NA,NA,g.PNG,g,573dacc5b3a71f00146e7d88,2021-10-19_12h53.18.170,forced_choiceRT,2021.1.2,Linux x86_64,60.0348202,NA,NA,NA,NA,NA,NA,NA,2,Ontime,g,1,2.0148,1,2,6,1,1,NA,NA,NA,NA,NA,2014.8000000000002,412.4000000000001,2,1,g,g,1,1,776,j,j,1,memory2,-0.5,-0.5,0.4124000000000001,FALSE,FALSE,FALSE,FALSE
NA,0.89,NA,NA,NA,NA,NA,NA,NA,NA,j.PNG,j,573dacc5b3a71f00146e7d88,2021-10-19_12h53.18.170,forced_choiceRT,2021.1.2,Linux x86_64,60.0348202,NA,NA,NA,NA,NA,NA,NA,2,Ontime,j,1,1.9131,3,1,13,3,1,NA,NA,NA,NA,NA,1913.1,511.54999999999995,2,1,j,j,0,1,139.2,h,h,1,memory2,0.5,-0.5,0.51155,FALSE,FALSE,FALSE,FALSE
NA,1.01,NA,NA,NA,NA,NA,NA,NA,NA,g.PNG,g,573dacc5b3a71f00146e7d88,2021-10-19_12h53.18.170,forced_choiceRT,2021.1.2,Linux x86_64,60.0348202,NA,NA,NA,NA,NA,NA,NA,2,Ontime,g,1,1.9675,3,3,15,1,1,NA,NA,NA,NA,NA,1967.5,478.75,2,1,g,g,1,1,571.75,h,h,1,memory2,-0.5,-0.5,0.47875,FALSE,FALSE,FALSE,FALSE
NA,1.33,NA,NA,NA,NA,NA,NA,NA,NA,f.PNG,f,573dacc5b3a71f00146e7d88,2021-10-19_12h53.18.170,forced_choiceRT,2021.1.2,Linux x86_64,60.0348202,NA,NA,NA,NA,NA,NA,NA,2,Ontime,f,1,1.9765,4,0,16,0,1,NA,NA,NA,NA,NA,1976.5,323.24999999999994,2,1,f,f,1,1,478.75,g,g,1,memory2,-0.5,-0.5,0.3232499999999999,FALSE,FALSE,FALSE,FALSE
NA,1.32,NA,NA,NA,NA,NA,NA,NA,NA,h.PNG,h,573dacc5b3a71f00146e7d88,2021-10-19_12h53.18.170,forced_choiceRT,2021.1.2,Linux x86_64,60.0348202,NA,NA,NA,NA,NA,NA,NA,2,Ontime,h,1,2.0999,4,1,17,2,1,NA,NA,NA,NA,NA,2099.9,389.94999999999993,2,1,h,h,1,1,323.24999999999994,f,f,1,memory2,-0.5,-0.5,0.3899499999999999,FALSE,FALSE,FALSE,FALSE
NA,1.37,NA,NA,NA,NA,NA,NA,NA,NA,j.PNG,j,573dacc5b3a71f00146e7d88,2021-10-19_12h53.18.170,forced_choiceRT,2021.1.2,Linux x86_64,60.0348202,NA,NA,NA,NA,NA,NA,NA,2,Ontime,j,1,1.9947,4,2,18,3,1,NA,NA,NA,NA,NA,1994.6999999999998,312.3499999999999,2,1,j,j,1,1,389.94999999999993,h,h,1,memory2,-0.5,-0.5,0.3123499999999999,FALSE,FALSE,FALSE,FALSE
NA,0.02,NA,NA,NA,NA,NA,NA,NA,NA,f.PNG,f,573dacc5b3a71f00146e7d88,2021-10-19_12h53.18.170,forced_choiceRT,2021.1.2,Linux x86_64,60.0348202,NA,NA,NA,NA,NA,NA,NA,2,Ontime,f,1,1.9339,4,3,19,0,1,NA,NA,NA,NA,NA,1933.8999999999999,956.9499999999999,2,1,f,f,1,1,312.3499999999999,j,j,1,memory2,-0.5,-0.5,0.95695,FALSE,FALSE,FALSE,FALSE
NA,0.2,NA,NA,NA,NA,NA,NA,NA,NA,g.PNG,g,573dacc5b3a71f00146e7d88,2021-10-19_12h53.18.170,forced_choiceRT,2021.1.2,Linux x86_64,60.0348202,NA,NA,NA,NA,NA,NA,NA,2,Ontime,g,1,1.9337,5,0,20,1,1,NA,NA,NA,NA,NA,1933.7,866.85,2,1,g,g,1,1,956.9499999999999,f,f,1,memory2,-0.5,-0.5,0.86685,FALSE,FALSE,FALSE,FALSE
NA,1.8,NA,NA,NA,NA,NA,NA,NA,NA,g.PNG,g,573dacc5b3a71f00146e7d88,2021-10-19_12h53.18.170,forced_choiceRT,2021.1.2,Linux x86_64,60.0348202,NA,NA,NA,NA,NA,NA,NA,2,Ontime,h,0,2.0477,5,1,21,1,1,NA,NA,NA,NA,NA,2047.6999999999998,123.84999999999991,2,0,h,g,1,1,866.85,g,g,0,memory2,-0.5,-0.5,0.1238499999999999,FALSE,TRUE,TRUE,FALSE
NA,1.74,NA,NA,NA,NA,NA,NA,NA,NA,g.PNG,g,573dacc5b3a71f00146e7d88,2021-10-19_12h53.18.170,forced_choiceRT,2021.1.2,Linux x86_64,60.0348202,NA,NA,NA,NA,NA,NA,NA,2,Ontime,h,0,2.0144,5,2,22,1,1,NA,NA,NA,NA,NA,2014.4,137.2000000000001,2,0,h,g,1,0,123.84999999999991,h,g,0,memory2,-0.5,0.5,0.1372000000000001,TRUE,TRUE,FALSE,FALSE
NA,0.72,NA,NA,NA,NA,NA,NA,NA,NA,j.PNG,j,573dacc5b3a71f00146e7d88,2021-10-19_12h53.18.170,forced_choiceRT,2021.1.2,Linux x86_64,60.0348202,NA,NA,NA,NA,NA,NA,NA,2,Ontime,j,1,2.0145,5,3,23,3,1,NA,NA,NA,NA,NA,2014.5,647.25,2,1,j,j,0,0,137.2000000000001,h,g,1,memory2,0.5,0.5,0.64725,FALSE,FALSE,FALSE,FALSE
NA,0.31,NA,NA,NA,NA,NA,NA,NA,NA,j.PNG,j,573dacc5b3a71f00146e7d88,2021-10-19_12h53.18.170,forced_choiceRT,2021.1.2,Linux x86_64,60.0348202,NA,NA,NA,NA,NA,NA,NA,2,Ontime,j,1,1.9624,6,0,24,3,1,NA,NA,NA,NA,NA,1962.3999999999999,826.1999999999999,2,1,j,j,0,1,647.25,j,j,1,memory2,0.5,-0.5,0.8261999999999999,TRUE,TRUE,TRUE,FALSE
NA,0.98,NA,NA,NA,NA,NA,NA,NA,NA,h.PNG,h,573dacc5b3a71f00146e7d88,2021-10-19_12h53.18.170,forced_choiceRT,2021.1.2,Linux x86_64,60.0348202,NA,NA,NA,NA,NA,NA,NA,2,Ontime,h,1,2.0964,6,2,26,2,1,NA,NA,NA,NA,NA,2096.4,558.2,2,1,h,h,1,1,730.8,h,h,1,memory2,-0.5,-0.5,0.5582,TRUE,TRUE,TRUE,FALSE
NA,1.92,NA,NA,NA,NA,NA,NA,NA,NA,j.PNG,j,573dacc5b3a71f00146e7d88,2021-10-19_12h53.18.170,forced_choiceRT,2021.1.2,Linux x86_64,60.0348202,NA,NA,NA,NA,NA,NA,NA,2,Ontime,h,0,2.0045,6,3,27,3,1,NA,NA,NA,NA,NA,2004.5000000000002,42.25000000000012,2,0,h,j,1,1,558.2,h,h,0,memory2,-0.5,-0.5,0.04225000000000012,TRUE,FALSE,FALSE,FALSE
NA,1.92,NA,NA,NA,NA,NA,NA,NA,NA,f.PNG,f,573dacc5b3a71f00146e7d88,2021-10-19_12h53.18.170,forced_choiceRT,2021.1.2,Linux x86_64,60.0348202,NA,NA,NA,NA,NA,NA,NA,2,Ontime,h,0,2.0675,7,0,28,0,1,NA,NA,NA,NA,NA,2067.5,73.74999999999999,2,0,h,f,1,0,42.25000000000012,h,j,0,memory2,-0.5,0.5,0.07374999999999998,TRUE,FALSE,FALSE,TRUE
NA,1.16,NA,NA,NA,NA,NA,NA,NA,NA,f.PNG,f,573dacc5b3a71f00146e7d88,2021-10-19_12h53.18.170,forced_choiceRT,2021.1.2,Linux x86_64,60.0348202,NA,NA,NA,NA,NA,NA,NA,2,Ontime,f,1,1.9168,7,1,29,0,1,NA,NA,NA,NA,NA,1916.8,378.4000000000001,2,1,f,f,0,0,73.74999999999999,h,f,1,memory2,0.5,0.5,0.37840000000000007,FALSE,TRUE,FALSE,TRUE
NA,0.91,NA,NA,NA,NA,NA,NA,NA,NA,g.PNG,g,573dacc5b3a71f00146e7d88,2021-10-19_12h53.18.170,forced_choiceRT,2021.1.2,Linux x86_64,60.0348202,NA,NA,NA,NA,NA,NA,NA,2,Ontime,g,1,1.9355,7,2,30,1,1,NA,NA,NA,NA,NA,1935.5,512.75,2,1,g,g,0,1,378.4000000000001,f,f,1,memory2,0.5,-0.5,0.51275,FALSE,FALSE,FALSE,FALSE
NA,0.19,NA,NA,NA,NA,NA,NA,NA,NA,h.PNG,h,573dacc5b3a71f00146e7d88,2021-10-19_12h53.18.170,forced_choiceRT,2021.1.2,Linux x86_64,60.0348202,NA,NA,NA,NA,NA,NA,NA,2,Ontime,h,1,1.917,7,3,31,2,1,NA,NA,NA,NA,NA,1917,863.5,2,1,h,h,1,1,512.75,g,g,1,memory2,-0.5,-0.5,0.8635,FALSE,FALSE,FALSE,FALSE
NA,1.51,NA,NA,NA,NA,NA,NA,NA,NA,g.PNG,g,573dacc5b3a71f00146e7d88,2021-10-19_12h53.18.170,forced_choiceRT,2021.1.2,Linux x86_64,60.0348202,NA,NA,NA,NA,NA,NA,NA,2,Ontime,h,0,2.0821,8,0,32,1,1,NA,NA,NA,NA,NA,2082.1,286.05,2,0,h,g,1,1,863.5,h,h,0,memory2,-0.5,-0.5,0.28605,TRUE,FALSE,FALSE,FALSE
NA,0.16,NA,NA,NA,NA,NA,NA,NA,NA,f.PNG,f,573dacc5b3a71f00146e7d88,2021-10-19_12h53.18.170,forced_choiceRT,2021.1.2,Linux x86_64,60.0348202,NA,NA,NA,NA,NA,NA,NA,2,Ontime,f,1,1.9179,8,2,34,0,1,NA,NA,NA,NA,NA,1917.8999999999999,878.95,2,1,f,f,0,1,722.05,j,j,1,memory2,0.5,-0.5,0.87895,FALSE,FALSE,FALSE,FALSE
NA,1.65,NA,NA,NA,NA,NA,NA,NA,NA,j.PNG,j,573dacc5b3a71f00146e7d88,2021-10-19_12h53.18.170,forced_choiceRT,2021.1.2,Linux x86_64,60.0348202,NA,NA,NA,NA,NA,NA,NA,2,Ontime,h,0,2.0297,9,0,36,3,1,NA,NA,NA,NA,NA,2029.7,189.85000000000008,2,0,h,j,1,0,281.6500000000001,h,g,0,memory2,-0.5,0.5,0.18985000000000007,TRUE,FALSE,FALSE,FALSE
NA,1.43,NA,NA,NA,NA,NA,NA,NA,NA,j.PNG,j,573dacc5b3a71f00146e7d88,2021-10-19_12h53.18.170,forced_choiceRT,2021.1.2,Linux x86_64,60.0348202,NA,NA,NA,NA,NA,NA,NA,2,Ontime,h,0,1.9335,9,1,37,3,1,NA,NA,NA,NA,NA,1933.5,251.75000000000003,2,0,h,j,0,0,189.85000000000008,h,j,0,memory2,0.5,0.5,0.25175000000000003,TRUE,TRUE,FALSE,FALSE
NA,0.26,NA,NA,NA,NA,NA,NA,NA,NA,f.PNG,f,573dacc5b3a71f00146e7d88,2021-10-19_12h53.18.170,forced_choiceRT,2021.1.2,Linux x86_64,60.0348202,NA,NA,NA,NA,NA,NA,NA,2,Ontime,f,1,1.9458,9,3,39,0,1,NA,NA,NA,NA,NA,1945.8,842.9,2,1,f,f,0,1,174.45,h,h,1,memory2,0.5,-0.5,0.8429,FALSE,FALSE,FALSE,FALSE
NA,0.17,NA,NA,NA,NA,NA,NA,NA,NA,g.PNG,g,573dacc5b3a71f00146e7d88,2021-10-19_12h53.18.170,forced_choiceRT,2021.1.2,Linux x86_64,60.0348202,NA,NA,NA,NA,NA,NA,NA,3,Ontime,g,1,1.9215,0,2,2,1,1,NA,NA,NA,NA,NA,1921.5,875.75,2,1,g,g,0,1,351.1500000000001,f,f,1,memory2,0.5,-0.5,0.87575,FALSE,FALSE,FALSE,FALSE
NA,1.37,NA,NA,NA,NA,NA,NA,NA,NA,g.PNG,g,573dacc5b3a71f00146e7d88,2021-10-19_12h53.18.170,forced_choiceRT,2021.1.2,Linux x86_64,60.0348202,NA,NA,NA,NA,NA,NA,NA,3,Ontime,g,1,2.0192,0,3,3,1,1,NA,NA,NA,NA,NA,2019.2,324.6,2,1,g,g,1,1,875.75,g,g,1,memory2,-0.5,-0.5,0.3246,TRUE,TRUE,TRUE,FALSE
NA,1.33,NA,NA,NA,NA,NA,NA,NA,NA,f.PNG,f,573dacc5b3a71f00146e7d88,2021-10-19_12h53.18.170,forced_choiceRT,2021.1.2,Linux x86_64,60.0348202,NA,NA,NA,NA,NA,NA,NA,3,Ontime,f,1,2.0866,1,0,4,0,1,NA,NA,NA,NA,NA,2086.6,378.29999999999984,2,1,f,f,1,1,324.6,g,g,1,memory2,-0.5,-0.5,0.37829999999999986,FALSE,FALSE,FALSE,FALSE
NA,1.69,NA,NA,NA,NA,NA,NA,NA,NA,g.PNG,g,573dacc5b3a71f00146e7d88,2021-10-19_12h53.18.170,forced_choiceRT,2021.1.2,Linux x86_64,60.0348202,NA,NA,NA,NA,NA,NA,NA,3,Ontime,h,0,2.0509,1,1,5,1,1,NA,NA,NA,NA,NA,2050.9,180.45,2,0,h,g,1,1,378.29999999999984,f,f,0,memory2,-0.5,-0.5,0.18045,FALSE,FALSE,FALSE,FALSE
NA,0.07,NA,NA,NA,NA,NA,NA,NA,NA,g.PNG,g,573dacc5b3a71f00146e7d88,2021-10-19_12h53.18.170,forced_choiceRT,2021.1.2,Linux x86_64,60.0348202,NA,NA,NA,NA,NA,NA,NA,3,Ontime,g,1,2.0156,1,3,7,1,1,NA,NA,NA,NA,NA,2015.6000000000001,972.8,2,1,g,g,0,1,441.99999999999994,g,g,1,memory2,0.5,-0.5,0.9728,TRUE,TRUE,TRUE,FALSE
NA,1.29,NA,NA,NA,NA,NA,NA,NA,NA,j.PNG,j,573dacc5b3a71f00146e7d88,2021-10-19_12h53.18.170,forced_choiceRT,2021.1.2,Linux x86_64,60.0348202,NA,NA,NA,NA,NA,NA,NA,3,Ontime,j,1,2.0381,2,0,8,3,1,NA,NA,NA,NA,NA,2038.1,374.05,2,1,j,j,1,1,972.8,g,g,1,memory2,-0.5,-0.5,0.37405,FALSE,FALSE,FALSE,FALSE
NA,0.76,NA,NA,NA,NA,NA,NA,NA,NA,j.PNG,j,573dacc5b3a71f00146e7d88,2021-10-19_12h53.18.170,forced_choiceRT,2021.1.2,Linux x86_64,60.0348202,NA,NA,NA,NA,NA,NA,NA,3,Ontime,j,1,2.0175,2,2,10,3,1,NA,NA,NA,NA,NA,2017.5,628.75,2,1,j,j,1,1,894.55,h,h,1,memory2,-0.5,-0.5,0.62875,FALSE,FALSE,FALSE,FALSE
NA,1.12,NA,NA,NA,NA,NA,NA,NA,NA,j.PNG,j,573dacc5b3a71f00146e7d88,2021-10-19_12h53.18.170,forced_choiceRT,2021.1.2,Linux x86_64,60.0348202,NA,NA,NA,NA,NA,NA,NA,3,Ontime,j,1,1.9629,3,1,13,3,1,NA,NA,NA,NA,NA,1962.9,421.45,2,1,j,j,1,1,693.5,h,h,1,memory2,-0.5,-0.5,0.42145,FALSE,FALSE,FALSE,FALSE
NA,0,NA,NA,NA,NA,NA,NA,NA,NA,h.PNG,h,573dacc5b3a71f00146e7d88,2021-10-19_12h53.18.170,forced_choiceRT,2021.1.2,Linux x86_64,60.0348202,NA,NA,NA,NA,NA,NA,NA,3,Ontime,h,1,1.935,3,2,14,2,1,NA,NA,NA,NA,NA,1935,967.5,2,1,h,h,1,1,421.45,j,j,1,memory2,-0.5,-0.5,0.9675,FALSE,FALSE,FALSE,FALSE
NA,0.61,NA,NA,NA,NA,NA,NA,NA,NA,f.PNG,f,573dacc5b3a71f00146e7d88,2021-10-19_12h53.18.170,forced_choiceRT,2021.1.2,Linux x86_64,60.0348202,NA,NA,NA,NA,NA,NA,NA,3,Ontime,f,1,1.9012,4,0,16,0,1,NA,NA,NA,NA,NA,1901.2,645.5999999999999,2,1,f,f,1,1,350.9500000000001,h,h,1,memory2,-0.5,-0.5,0.6456,FALSE,FALSE,FALSE,FALSE
NA,1.37,NA,NA,NA,NA,NA,NA,NA,NA,h.PNG,h,573dacc5b3a71f00146e7d88,2021-10-19_12h53.18.170,forced_choiceRT,2021.1.2,Linux x86_64,60.0348202,NA,NA,NA,NA,NA,NA,NA,3,Ontime,h,1,1.9188,5,0,20,2,1,NA,NA,NA,NA,NA,1918.8,274.4,2,1,h,h,1,0,311.05000000000007,h,j,1,memory2,-0.5,0.5,0.2744,TRUE,FALSE,TRUE,FALSE
NA,1.29,NA,NA,NA,NA,NA,NA,NA,NA,h.PNG,h,573dacc5b3a71f00146e7d88,2021-10-19_12h53.18.170,forced_choiceRT,2021.1.2,Linux x86_64,60.0348202,NA,NA,NA,NA,NA,NA,NA,3,Ontime,h,1,1.9196,5,1,21,2,1,NA,NA,NA,NA,NA,1919.6,314.79999999999995,2,1,h,h,0,1,274.4,h,h,1,memory2,0.5,-0.5,0.31479999999999997,TRUE,TRUE,TRUE,FALSE
NA,0.04,NA,NA,NA,NA,NA,NA,NA,NA,f.PNG,f,573dacc5b3a71f00146e7d88,2021-10-19_12h53.18.170,forced_choiceRT,2021.1.2,Linux x86_64,60.0348202,NA,NA,NA,NA,NA,NA,NA,3,Ontime,f,1,2.0002,5,2,22,0,1,NA,NA,NA,NA,NA,2000.2,980.1,2,1,f,f,1,1,314.79999999999995,h,h,1,memory2,-0.5,-0.5,0.9801,FALSE,FALSE,FALSE,FALSE
NA,1.47,NA,NA,NA,NA,NA,NA,NA,NA,f.PNG,f,573dacc5b3a71f00146e7d88,2021-10-19_12h53.18.170,forced_choiceRT,2021.1.2,Linux x86_64,60.0348202,NA,NA,NA,NA,NA,NA,NA,3,Ontime,h,0,1.9205,5,3,23,0,1,NA,NA,NA,NA,NA,1920.5,225.25000000000006,2,0,h,f,1,1,980.1,f,f,0,memory2,-0.5,-0.5,0.22525000000000006,FALSE,TRUE,TRUE,FALSE
NA,0.79,NA,NA,NA,NA,NA,NA,NA,NA,g.PNG,g,573dacc5b3a71f00146e7d88,2021-10-19_12h53.18.170,forced_choiceRT,2021.1.2,Linux x86_64,60.0348202,NA,NA,NA,NA,NA,NA,NA,3,Ontime,g,1,1.9101,6,0,24,1,1,NA,NA,NA,NA,NA,1910.1,560.05,2,1,g,g,1,0,225.25000000000006,h,f,1,memory2,-0.5,0.5,0.5600499999999999,FALSE,FALSE,FALSE,FALSE
NA,1.6,NA,NA,NA,NA,NA,NA,NA,NA,j.PNG,j,573dacc5b3a71f00146e7d88,2021-10-19_12h53.18.170,forced_choiceRT,2021.1.2,Linux x86_64,60.0348202,NA,NA,NA,NA,NA,NA,NA,3,Ontime,g,0,1.9667,6,1,25,3,1,NA,NA,NA,NA,NA,1966.6999999999998,183.3499999999999,2,0,g,j,0,1,560.05,g,g,0,memory2,0.5,-0.5,0.1833499999999999,TRUE,FALSE,FALSE,FALSE
NA,1.73,NA,NA,NA,NA,NA,NA,NA,NA,f.PNG,f,573dacc5b3a71f00146e7d88,2021-10-19_12h53.18.170,forced_choiceRT,2021.1.2,Linux x86_64,60.0348202,NA,NA,NA,NA,NA,NA,NA,3,Slow,h,0,2.1,6,3,27,0,1,NA,NA,NA,NA,NA,2100,185.00000000000006,2,0,h,f,0,1,462.85,g,g,0,memory2,0.5,-0.5,0.18500000000000005,FALSE,FALSE,FALSE,FALSE
NA,0.28,NA,NA,NA,NA,NA,NA,NA,NA,h.PNG,h,573dacc5b3a71f00146e7d88,2021-10-19_12h53.18.170,forced_choiceRT,2021.1.2,Linux x86_64,60.0348202,NA,NA,NA,NA,NA,NA,NA,3,Ontime,h,1,2.0337,7,0,28,2,1,NA,NA,NA,NA,NA,2033.7,876.85,2,1,h,h,1,0,185.00000000000006,h,f,1,memory2,-0.5,0.5,0.87685,TRUE,FALSE,TRUE,FALSE
NA,0.22,NA,NA,NA,NA,NA,NA,NA,NA,g.PNG,g,573dacc5b3a71f00146e7d88,2021-10-19_12h53.18.170,forced_choiceRT,2021.1.2,Linux x86_64,60.0348202,NA,NA,NA,NA,NA,NA,NA,3,Ontime,g,1,2.0338,7,1,29,1,1,NA,NA,NA,NA,NA,2033.7999999999997,906.9,2,1,g,g,0,1,876.85,h,h,1,memory2,0.5,-0.5,0.9068999999999999,FALSE,FALSE,FALSE,FALSE
NA,1.45,NA,NA,NA,NA,NA,NA,NA,NA,f.PNG,f,573dacc5b3a71f00146e7d88,2021-10-19_12h53.18.170,forced_choiceRT,2021.1.2,Linux x86_64,60.0348202,NA,NA,NA,NA,NA,NA,NA,3,Ontime,f,1,2.0616,7,2,30,0,1,NA,NA,NA,NA,NA,2061.6,305.79999999999995,2,1,f,f,1,1,906.9,g,g,1,memory2,-0.5,-0.5,0.30579999999999996,FALSE,FALSE,FALSE,FALSE
NA,0.63,NA,NA,NA,NA,NA,NA,NA,NA,j.PNG,j,573dacc5b3a71f00146e7d88,2021-10-19_12h53.18.170,forced_choiceRT,2021.1.2,Linux x86_64,60.0348202,NA,NA,NA,NA,NA,NA,NA,3,Ontime,j,1,1.9645,8,0,32,3,1,NA,NA,NA,NA,NA,1964.5,667.2499999999999,2,1,j,j,1,1,338.6,f,f,1,memory2,-0.5,-0.5,0.6672499999999999,FALSE,FALSE,FALSE,FALSE
NA,1.71,NA,NA,NA,NA,NA,NA,NA,NA,g.PNG,g,573dacc5b3a71f00146e7d88,2021-10-19_12h53.18.170,forced_choiceRT,2021.1.2,Linux x86_64,60.0348202,NA,NA,NA,NA,NA,NA,NA,3,Ontime,h,0,2.0172,8,1,33,1,1,NA,NA,NA,NA,NA,2017.1999999999998,153.59999999999997,2,0,h,g,1,1,667.2499999999999,j,j,0,memory2,-0.5,-0.5,0.15359999999999996,FALSE,FALSE,FALSE,FALSE
NA,1.88,NA,NA,NA,NA,NA,NA,NA,NA,h.PNG,h,573dacc5b3a71f00146e7d88,2021-10-19_12h53.18.170,forced_choiceRT,2021.1.2,Linux x86_64,60.0348202,NA,NA,NA,NA,NA,NA,NA,3,Ontime,j,0,2.067,8,3,35,2,1,NA,NA,NA,NA,NA,2067,93.50000000000014,2,0,j,h,0,1,374.69999999999993,j,j,0,memory2,0.5,-0.5,0.09350000000000014,TRUE,FALSE,FALSE,FALSE
NA,1.33,NA,NA,NA,NA,NA,NA,NA,NA,g.PNG,g,573dacc5b3a71f00146e7d88,2021-10-19_12h53.18.170,forced_choiceRT,2021.1.2,Linux x86_64,60.0348202,NA,NA,NA,NA,NA,NA,NA,3,Ontime,h,0,1.9492,9,2,38,1,1,NA,NA,NA,NA,NA,1949.2,309.59999999999997,2,0,h,g,1,1,841.1999999999999,j,j,0,memory2,-0.5,-0.5,0.3096,FALSE,FALSE,FALSE,FALSE
NA,1.26,NA,NA,NA,NA,NA,NA,NA,NA,g.PNG,g,573dacc5b3a71f00146e7d88,2021-10-19_12h53.18.170,forced_choiceRT,2021.1.2,Linux x86_64,60.0348202,NA,NA,NA,NA,NA,NA,NA,4,Ontime,g,1,1.9983,0,0,0,1,1,NA,NA,NA,NA,NA,1998.3,369.15,2,1,g,g,0,1,658.8,j,j,1,memory2,0.5,-0.5,0.36915,FALSE,FALSE,FALSE,FALSE
NA,1.49,NA,NA,NA,NA,NA,NA,NA,NA,j.PNG,j,573dacc5b3a71f00146e7d88,2021-10-19_12h53.18.170,forced_choiceRT,2021.1.2,Linux x86_64,60.0348202,NA,NA,NA,NA,NA,NA,NA,4,Ontime,h,0,2.0608,0,2,2,3,1,NA,NA,NA,NA,NA,2060.8,285.4,2,0,h,j,1,0,434.15,j,h,0,memory2,-0.5,0.5,0.2854,FALSE,FALSE,TRUE,FALSE
NA,0.97,NA,NA,NA,NA,NA,NA,NA,NA,f.PNG,f,573dacc5b3a71f00146e7d88,2021-10-19_12h53.18.170,forced_choiceRT,2021.1.2,Linux x86_64,60.0348202,NA,NA,NA,NA,NA,NA,NA,4,Ontime,f,1,1.9856,1,0,4,0,1,NA,NA,NA,NA,NA,1985.6000000000001,507.8,2,1,f,f,0,0,248.14999999999986,h,g,1,memory2,0.5,0.5,0.5078,FALSE,FALSE,FALSE,FALSE
NA,0.69,NA,NA,NA,NA,NA,NA,NA,NA,j.PNG,j,573dacc5b3a71f00146e7d88,2021-10-19_12h53.18.170,forced_choiceRT,2021.1.2,Linux x86_64,60.0348202,NA,NA,NA,NA,NA,NA,NA,4,Ontime,j,1,1.947,1,1,5,3,1,NA,NA,NA,NA,NA,1947,628.5000000000001,2,1,j,j,0,1,507.8,f,f,1,memory2,0.5,-0.5,0.6285000000000001,FALSE,FALSE,FALSE,FALSE
NA,0.25,NA,NA,NA,NA,NA,NA,NA,NA,j.PNG,j,573dacc5b3a71f00146e7d88,2021-10-19_12h53.18.170,forced_choiceRT,2021.1.2,Linux x86_64,60.0348202,NA,NA,NA,NA,NA,NA,NA,4,Ontime,j,1,1.902,1,2,6,3,1,NA,NA,NA,NA,NA,1902,826,2,1,j,j,1,1,628.5000000000001,j,j,1,memory2,-0.5,-0.5,0.826,TRUE,TRUE,TRUE,FALSE
NA,1.01,NA,NA,NA,NA,NA,NA,NA,NA,h.PNG,h,573dacc5b3a71f00146e7d88,2021-10-19_12h53.18.170,forced_choiceRT,2021.1.2,Linux x86_64,60.0348202,NA,NA,NA,NA,NA,NA,NA,4,Ontime,h,1,1.9172,1,3,7,2,1,NA,NA,NA,NA,NA,1917.2,453.6,2,1,h,h,1,1,826,j,j,1,memory2,-0.5,-0.5,0.4536,FALSE,FALSE,FALSE,FALSE
NA,0.09,NA,NA,NA,NA,NA,NA,NA,NA,f.PNG,f,573dacc5b3a71f00146e7d88,2021-10-19_12h53.18.170,forced_choiceRT,2021.1.2,Linux x86_64,60.0348202,NA,NA,NA,NA,NA,NA,NA,4,Ontime,f,1,1.9295,2,0,8,0,1,NA,NA,NA,NA,NA,1929.5,919.75,2,1,f,f,1,1,453.6,h,h,1,memory2,-0.5,-0.5,0.91975,FALSE,FALSE,FALSE,FALSE
NA,1.1,NA,NA,NA,NA,NA,NA,NA,NA,f.PNG,f,573dacc5b3a71f00146e7d88,2021-10-19_12h53.18.170,forced_choiceRT,2021.1.2,Linux x86_64,60.0348202,NA,NA,NA,NA,NA,NA,NA,4,Ontime,f,1,2.0198,2,1,9,0,1,NA,NA,NA,NA,NA,2019.8,459.9,2,1,f,f,1,1,919.75,f,f,1,memory2,-0.5,-0.5,0.4599,TRUE,TRUE,TRUE,FALSE
NA,1.8,NA,NA,NA,NA,NA,NA,NA,NA,g.PNG,g,573dacc5b3a71f00146e7d88,2021-10-19_12h53.18.170,forced_choiceRT,2021.1.2,Linux x86_64,60.0348202,NA,NA,NA,NA,NA,NA,NA,4,Ontime,h,0,2.0669,2,2,10,1,1,NA,NA,NA,NA,NA,2066.9,133.44999999999996,2,0,h,g,1,1,459.9,f,f,0,memory2,-0.5,-0.5,0.13344999999999996,FALSE,FALSE,FALSE,FALSE
NA,1.7,NA,NA,NA,NA,NA,NA,NA,NA,h.PNG,h,573dacc5b3a71f00146e7d88,2021-10-19_12h53.18.170,forced_choiceRT,2021.1.2,Linux x86_64,60.0348202,NA,NA,NA,NA,NA,NA,NA,4,Ontime,h,1,2.0517,3,0,12,2,1,NA,NA,NA,NA,NA,2051.7,175.84999999999994,2,1,h,h,0,1,883.25,g,g,1,memory2,0.5,-0.5,0.17584999999999995,FALSE,FALSE,FALSE,FALSE
NA,1.76,NA,NA,NA,NA,NA,NA,NA,NA,j.PNG,j,573dacc5b3a71f00146e7d88,2021-10-19_12h53.18.170,forced_choiceRT,2021.1.2,Linux x86_64,60.0348202,NA,NA,NA,NA,NA,NA,NA,4,Ontime,h,0,1.9848,4,0,16,3,1,NA,NA,NA,NA,NA,1984.8,112.39999999999995,2,0,h,j,0,1,-22.44999999999997,h,h,0,memory2,0.5,-0.5,0.11239999999999994,TRUE,FALSE,FALSE,TRUE
NA,0.02,NA,NA,NA,NA,NA,NA,NA,NA,g.PNG,g,573dacc5b3a71f00146e7d88,2021-10-19_12h53.18.170,forced_choiceRT,2021.1.2,Linux x86_64,60.0348202,NA,NA,NA,NA,NA,NA,NA,4,Ontime,g,1,1.9928,4,2,18,1,1,NA,NA,NA,NA,NA,1992.8,986.4,2,1,g,g,0,1,371.6,h,h,1,memory2,0.5,-0.5,0.9863999999999999,FALSE,FALSE,FALSE,FALSE
NA,1.86,NA,NA,NA,NA,NA,NA,NA,NA,h.PNG,h,573dacc5b3a71f00146e7d88,2021-10-19_12h53.18.170,forced_choiceRT,2021.1.2,Linux x86_64,60.0348202,NA,NA,NA,NA,NA,NA,NA,4,Ontime,h,1,2.0272,4,3,19,2,1,NA,NA,NA,NA,NA,2027.2,83.60000000000001,2,1,h,h,1,1,986.4,g,g,1,memory2,-0.5,-0.5,0.08360000000000001,FALSE,FALSE,FALSE,FALSE
NA,1.28,NA,NA,NA,NA,NA,NA,NA,NA,g.PNG,g,573dacc5b3a71f00146e7d88,2021-10-19_12h53.18.170,forced_choiceRT,2021.1.2,Linux x86_64,60.0348202,NA,NA,NA,NA,NA,NA,NA,4,Ontime,g,1,2.0842,5,0,20,1,1,NA,NA,NA,NA,NA,2084.2000000000003,402.1,2,1,g,g,1,1,83.60000000000001,h,h,1,memory2,-0.5,-0.5,0.4021,FALSE,FALSE,FALSE,TRUE
NA,1.31,NA,NA,NA,NA,NA,NA,NA,NA,g.PNG,g,573dacc5b3a71f00146e7d88,2021-10-19_12h53.18.170,forced_choiceRT,2021.1.2,Linux x86_64,60.0348202,NA,NA,NA,NA,NA,NA,NA,4,Ontime,g,1,2.0295,5,2,22,1,1,NA,NA,NA,NA,NA,2029.5,359.75,2,1,g,g,1,1,808.9,f,f,1,memory2,-0.5,-0.5,0.35975,FALSE,FALSE,FALSE,FALSE
NA,0.8,NA,NA,NA,NA,NA,NA,NA,NA,j.PNG,j,573dacc5b3a71f00146e7d88,2021-10-19_12h53.18.170,forced_choiceRT,2021.1.2,Linux x86_64,60.0348202,NA,NA,NA,NA,NA,NA,NA,4,Ontime,j,1,2.0041,6,0,24,3,1,NA,NA,NA,NA,NA,2004.1000000000001,602.0500000000001,2,1,j,j,1,1,1042.1000000000001,h,h,1,memory2,-0.5,-0.5,0.6020500000000001,FALSE,FALSE,FALSE,FALSE
NA,0.85,NA,NA,NA,NA,NA,NA,NA,NA,h.PNG,h,573dacc5b3a71f00146e7d88,2021-10-19_12h53.18.170,forced_choiceRT,2021.1.2,Linux x86_64,60.0348202,NA,NA,NA,NA,NA,NA,NA,4,Ontime,j,0,2.0113,6,1,25,2,1,NA,NA,NA,NA,NA,2011.3,580.6499999999999,2,0,j,h,1,1,602.0500000000001,j,j,0,memory2,-0.5,-0.5,0.5806499999999999,TRUE,FALSE,FALSE,FALSE
NA,0.5,NA,NA,NA,NA,NA,NA,NA,NA,f.PNG,f,573dacc5b3a71f00146e7d88,2021-10-19_12h53.18.170,forced_choiceRT,2021.1.2,Linux x86_64,60.0348202,NA,NA,NA,NA,NA,NA,NA,4,Ontime,f,1,1.958,6,2,26,0,1,NA,NA,NA,NA,NA,1958,729,2,1,f,f,1,0,580.6499999999999,j,h,1,memory2,-0.5,0.5,0.729,FALSE,FALSE,FALSE,FALSE
NA,0.93,NA,NA,NA,NA,NA,NA,NA,NA,h.PNG,h,573dacc5b3a71f00146e7d88,2021-10-19_12h53.18.170,forced_choiceRT,2021.1.2,Linux x86_64,60.0348202,NA,NA,NA,NA,NA,NA,NA,4,Ontime,h,1,2.0172,6,3,27,2,1,NA,NA,NA,NA,NA,2017.1999999999998,543.5999999999999,2,1,h,h,0,1,729,f,f,1,memory2,0.5,-0.5,0.5435999999999999,FALSE,FALSE,FALSE,FALSE
NA,0.39,NA,NA,NA,NA,NA,NA,NA,NA,j.PNG,j,573dacc5b3a71f00146e7d88,2021-10-19_12h53.18.170,forced_choiceRT,2021.1.2,Linux x86_64,60.0348202,NA,NA,NA,NA,NA,NA,NA,4,Ontime,j,1,2.0005,7,0,28,3,1,NA,NA,NA,NA,NA,2000.5000000000002,805.25,2,1,j,j,1,1,543.5999999999999,h,h,1,memory2,-0.5,-0.5,0.80525,FALSE,FALSE,FALSE,FALSE
NA,0.92,NA,NA,NA,NA,NA,NA,NA,NA,f.PNG,f,573dacc5b3a71f00146e7d88,2021-10-19_12h53.18.170,forced_choiceRT,2021.1.2,Linux x86_64,60.0348202,NA,NA,NA,NA,NA,NA,NA,4,Ontime,f,1,2.0316,7,1,29,0,1,NA,NA,NA,NA,NA,2031.6000000000001,555.8000000000001,2,1,f,f,1,1,805.25,j,j,1,memory2,-0.5,-0.5,0.5558000000000001,FALSE,FALSE,FALSE,FALSE
NA,0.18,NA,NA,NA,NA,NA,NA,NA,NA,j.PNG,j,573dacc5b3a71f00146e7d88,2021-10-19_12h53.18.170,forced_choiceRT,2021.1.2,Linux x86_64,60.0348202,NA,NA,NA,NA,NA,NA,NA,4,Ontime,j,1,2.054,7,2,30,3,1,NA,NA,NA,NA,NA,2054,937,2,1,j,j,1,1,555.8000000000001,f,f,1,memory2,-0.5,-0.5,0.937,FALSE,FALSE,FALSE,FALSE
NA,1.06,NA,NA,NA,NA,NA,NA,NA,NA,g.PNG,g,573dacc5b3a71f00146e7d88,2021-10-19_12h53.18.170,forced_choiceRT,2021.1.2,Linux x86_64,60.0348202,NA,NA,NA,NA,NA,NA,NA,4,Ontime,g,1,1.9959,8,0,32,1,1,NA,NA,NA,NA,NA,1995.9,467.95,2,1,g,g,1,0,155.95000000000005,h,j,1,memory2,-0.5,0.5,0.46795,FALSE,FALSE,FALSE,FALSE
NA,1.78,NA,NA,NA,NA,NA,NA,NA,NA,f.PNG,f,573dacc5b3a71f00146e7d88,2021-10-19_12h53.18.170,forced_choiceRT,2021.1.2,Linux x86_64,60.0348202,NA,NA,NA,NA,NA,NA,NA,4,Ontime,j,0,2.0146,8,1,33,0,1,NA,NA,NA,NA,NA,2014.6000000000001,117.30000000000007,2,0,j,f,0,1,467.95,g,g,0,memory2,0.5,-0.5,0.11730000000000007,FALSE,FALSE,FALSE,FALSE
NA,1.64,NA,NA,NA,NA,NA,NA,NA,NA,f.PNG,f,573dacc5b3a71f00146e7d88,2021-10-19_12h53.18.170,forced_choiceRT,2021.1.2,Linux x86_64,60.0348202,NA,NA,NA,NA,NA,NA,NA,4,Ontime,f,1,2.0993,8,2,34,0,1,NA,NA,NA,NA,NA,2099.2999999999997,229.65000000000003,2,1,f,f,1,0,117.30000000000007,j,f,1,memory2,-0.5,0.5,0.22965000000000002,FALSE,TRUE,FALSE,FALSE
NA,0.05,NA,NA,NA,NA,NA,NA,NA,NA,f.PNG,f,573dacc5b3a71f00146e7d88,2021-10-19_12h53.18.170,forced_choiceRT,2021.1.2,Linux x86_64,60.0348202,NA,NA,NA,NA,NA,NA,NA,4,Ontime,f,1,2.0283,8,3,35,0,1,NA,NA,NA,NA,NA,2028.3000000000002,989.1500000000001,2,1,f,f,0,1,229.65000000000003,f,f,1,memory2,0.5,-0.5,0.9891500000000001,TRUE,TRUE,TRUE,FALSE
NA,1.8,NA,NA,NA,NA,NA,NA,NA,NA,f.PNG,f,573dacc5b3a71f00146e7d88,2021-10-19_12h53.18.170,forced_choiceRT,2021.1.2,Linux x86_64,60.0348202,NA,NA,NA,NA,NA,NA,NA,4,Ontime,h,0,2.0164,9,0,36,0,1,NA,NA,NA,NA,NA,2016.3999999999999,108.19999999999996,2,0,h,f,1,1,989.1500000000001,f,f,0,memory2,-0.5,-0.5,0.10819999999999996,FALSE,TRUE,TRUE,FALSE
NA,0.18,NA,NA,NA,NA,NA,NA,NA,NA,g.PNG,g,573dacc5b3a71f00146e7d88,2021-10-19_12h53.18.170,forced_choiceRT,2021.1.2,Linux x86_64,60.0348202,NA,NA,NA,NA,NA,NA,NA,4,Ontime,g,1,2.0787,9,1,37,1,1,NA,NA,NA,NA,NA,2078.7,949.35,2,1,g,g,1,0,108.19999999999996,h,f,1,memory2,-0.5,0.5,0.94935,FALSE,FALSE,FALSE,FALSE
NA,0.58,NA,NA,NA,NA,NA,NA,NA,NA,g.PNG,g,573dacc5b3a71f00146e7d88,2021-10-19_12h53.18.170,forced_choiceRT,2021.1.2,Linux x86_64,60.0348202,NA,NA,NA,NA,NA,NA,NA,4,Ontime,g,1,2.0512,9,2,38,1,1,NA,NA,NA,NA,NA,2051.2000000000003,735.6,2,1,g,g,0,1,949.35,g,g,1,memory2,0.5,-0.5,0.7356,TRUE,TRUE,TRUE,FALSE
NA,0.46,NA,NA,NA,NA,NA,NA,NA,NA,h.PNG,h,573dacc5b3a71f00146e7d88,2021-10-19_12h53.18.170,forced_choiceRT,2021.1.2,Linux x86_64,60.0348202,NA,NA,NA,NA,NA,NA,NA,4,Ontime,h,1,2.028,9,3,39,2,1,NA,NA,NA,NA,NA,2028,784,2,1,h,h,1,1,735.6,g,g,1,memory2,-0.5,-0.5,0.784,FALSE,FALSE,FALSE,FALSE
NA,0.47,NA,NA,NA,NA,NA,NA,NA,NA,g.PNG,g,573dacc5b3a71f00146e7d88,2021-10-19_12h53.18.170,forced_choiceRT,2021.1.2,Linux x86_64,60.0348202,NA,NA,NA,NA,NA,NA,NA,5,Ontime,g,1,2.0023,0,0,0,1,1,NA,NA,NA,NA,NA,2002.3,766.15,2,1,g,g,1,1,784,h,h,1,memory2,-0.5,-0.5,0.76615,FALSE,FALSE,FALSE,FALSE
NA,1.17,NA,NA,NA,NA,NA,NA,NA,NA,g.PNG,g,573dacc5b3a71f00146e7d88,2021-10-19_12h53.18.170,forced_choiceRT,2021.1.2,Linux x86_64,60.0348202,NA,NA,NA,NA,NA,NA,NA,5,Ontime,g,1,2.0485,0,1,1,1,1,NA,NA,NA,NA,NA,2048.5,439.2500000000001,2,1,g,g,1,1,766.15,g,g,1,memory2,-0.5,-0.5,0.43925000000000014,TRUE,TRUE,TRUE,FALSE
NA,1.57,NA,NA,NA,NA,NA,NA,NA,NA,f.PNG,f,573dacc5b3a71f00146e7d88,2021-10-19_12h53.18.170,forced_choiceRT,2021.1.2,Linux x86_64,60.0348202,NA,NA,NA,NA,NA,NA,NA,5,Ontime,g,0,2.0992,0,2,2,0,1,NA,NA,NA,NA,NA,2099.2000000000003,264.6000000000001,2,0,g,f,1,1,439.2500000000001,g,g,0,memory2,-0.5,-0.5,0.26460000000000006,TRUE,FALSE,FALSE,FALSE
NA,1.62,NA,NA,NA,NA,NA,NA,NA,NA,j.PNG,j,573dacc5b3a71f00146e7d88,2021-10-19_12h53.18.170,forced_choiceRT,2021.1.2,Linux x86_64,60.0348202,NA,NA,NA,NA,NA,NA,NA,5,Ontime,h,0,1.9639,1,1,5,3,1,NA,NA,NA,NA,NA,1963.9,171.94999999999993,2,0,h,j,0,1,377.44999999999993,h,h,0,memory2,0.5,-0.5,0.17194999999999994,TRUE,FALSE,FALSE,FALSE
NA,1.97,NA,NA,NA,NA,NA,NA,NA,NA,h.PNG,h,573dacc5b3a71f00146e7d88,2021-10-19_12h53.18.170,forced_choiceRT,2021.1.2,Linux x86_64,60.0348202,NA,NA,NA,NA,NA,NA,NA,5,Ontime,h,1,2.0858,1,2,6,2,1,NA,NA,NA,NA,NA,2085.7999999999997,57.89999999999995,2,1,h,h,1,0,171.94999999999993,h,j,1,memory2,-0.5,0.5,0.05789999999999995,TRUE,FALSE,TRUE,FALSE
NA,0.86,NA,NA,NA,NA,NA,NA,NA,NA,f.PNG,f,573dacc5b3a71f00146e7d88,2021-10-19_12h53.18.170,forced_choiceRT,2021.1.2,Linux x86_64,60.0348202,NA,NA,NA,NA,NA,NA,NA,5,Ontime,f,1,1.9327,1,3,7,0,1,NA,NA,NA,NA,NA,1932.7,536.3500000000001,2,1,f,f,0,1,57.89999999999995,h,h,1,memory2,0.5,-0.5,0.5363500000000001,FALSE,FALSE,FALSE,TRUE
NA,0.76,NA,NA,NA,NA,NA,NA,NA,NA,j.PNG,j,573dacc5b3a71f00146e7d88,2021-10-19_12h53.18.170,forced_choiceRT,2021.1.2,Linux x86_64,60.0348202,NA,NA,NA,NA,NA,NA,NA,5,Ontime,j,1,1.9541,2,0,8,3,1,NA,NA,NA,NA,NA,1954.1,597.05,2,1,j,j,1,1,536.3500000000001,f,f,1,memory2,-0.5,-0.5,0.59705,FALSE,FALSE,FALSE,FALSE
NA,0.8,NA,NA,NA,NA,NA,NA,NA,NA,j.PNG,j,573dacc5b3a71f00146e7d88,2021-10-19_12h53.18.170,forced_choiceRT,2021.1.2,Linux x86_64,60.0348202,NA,NA,NA,NA,NA,NA,NA,5,Ontime,j,1,2.0687,2,1,9,3,1,NA,NA,NA,NA,NA,2068.7000000000003,634.3500000000001,2,1,j,j,1,1,597.05,j,j,1,memory2,-0.5,-0.5,0.6343500000000002,TRUE,TRUE,TRUE,FALSE
NA,0.52,NA,NA,NA,NA,NA,NA,NA,NA,g.PNG,g,573dacc5b3a71f00146e7d88,2021-10-19_12h53.18.170,forced_choiceRT,2021.1.2,Linux x86_64,60.0348202,NA,NA,NA,NA,NA,NA,NA,5,Ontime,g,1,2.0011,2,2,10,1,1,NA,NA,NA,NA,NA,2001.1000000000001,740.5500000000001,2,1,g,g,1,1,634.3500000000001,j,j,1,memory2,-0.5,-0.5,0.74055,FALSE,FALSE,FALSE,FALSE
NA,0.89,NA,NA,NA,NA,NA,NA,NA,NA,j.PNG,j,573dacc5b3a71f00146e7d88,2021-10-19_12h53.18.170,forced_choiceRT,2021.1.2,Linux x86_64,60.0348202,NA,NA,NA,NA,NA,NA,NA,5,Ontime,j,1,2.0313,2,3,11,3,1,NA,NA,NA,NA,NA,2031.3,570.6499999999999,2,1,j,j,1,1,740.5500000000001,g,g,1,memory2,-0.5,-0.5,0.5706499999999999,FALSE,FALSE,FALSE,FALSE
NA,1.6,NA,NA,NA,NA,NA,NA,NA,NA,g.PNG,g,573dacc5b3a71f00146e7d88,2021-10-19_12h53.18.170,forced_choiceRT,2021.1.2,Linux x86_64,60.0348202,NA,NA,NA,NA,NA,NA,NA,5,Ontime,h,0,1.9154,3,0,12,1,1,NA,NA,NA,NA,NA,1915.4,157.69999999999996,2,0,h,g,1,1,570.6499999999999,j,j,0,memory2,-0.5,-0.5,0.15769999999999995,FALSE,FALSE,FALSE,FALSE
NA,1.22,NA,NA,NA,NA,NA,NA,NA,NA,h.PNG,h,573dacc5b3a71f00146e7d88,2021-10-19_12h53.18.170,forced_choiceRT,2021.1.2,Linux x86_64,60.0348202,NA,NA,NA,NA,NA,NA,NA,5,Ontime,h,1,1.9535,3,1,13,2,1,NA,NA,NA,NA,NA,1953.5,366.75,2,1,h,h,1,0,157.69999999999996,h,g,1,memory2,-0.5,0.5,0.36675,TRUE,FALSE,TRUE,FALSE
NA,1.53,NA,NA,NA,NA,NA,NA,NA,NA,f.PNG,f,573dacc5b3a71f00146e7d88,2021-10-19_12h53.18.170,forced_choiceRT,2021.1.2,Linux x86_64,60.0348202,NA,NA,NA,NA,NA,NA,NA,5,Ontime,f,1,2.0995,3,3,15,0,1,NA,NA,NA,NA,NA,2099.5,284.74999999999994,2,1,f,f,1,0,247.45000000000005,j,g,1,memory2,-0.5,0.5,0.28474999999999995,FALSE,FALSE,FALSE,FALSE
NA,1.83,NA,NA,NA,NA,NA,NA,NA,NA,h.PNG,h,573dacc5b3a71f00146e7d88,2021-10-19_12h53.18.170,forced_choiceRT,2021.1.2,Linux x86_64,60.0348202,NA,NA,NA,NA,NA,NA,NA,5,Ontime,h,1,1.9724,4,0,16,2,1,NA,NA,NA,NA,NA,1972.3999999999999,71.19999999999993,2,1,h,h,0,1,284.74999999999994,f,f,1,memory2,0.5,-0.5,0.07119999999999993,FALSE,FALSE,FALSE,FALSE
NA,1.92,NA,NA,NA,NA,NA,NA,NA,NA,f.PNG,f,573dacc5b3a71f00146e7d88,2021-10-19_12h53.18.170,forced_choiceRT,2021.1.2,Linux x86_64,60.0348202,NA,NA,NA,NA,NA,NA,NA,5,Ontime,h,0,1.9894,4,1,17,0,1,NA,NA,NA,NA,NA,1989.4,34.70000000000007,2,0,h,f,1,1,71.19999999999993,h,h,0,memory2,-0.5,-0.5,0.034700000000000064,TRUE,FALSE,FALSE,TRUE
NA,1.77,NA,NA,NA,NA,NA,NA,NA,NA,h.PNG,h,573dacc5b3a71f00146e7d88,2021-10-19_12h53.18.170,forced_choiceRT,2021.1.2,Linux x86_64,60.0348202,NA,NA,NA,NA,NA,NA,NA,5,Ontime,h,1,2.0834,4,2,18,2,1,NA,NA,NA,NA,NA,2083.4,156.70000000000007,2,1,h,h,1,0,34.70000000000007,h,f,1,memory2,-0.5,0.5,0.15670000000000006,TRUE,FALSE,TRUE,TRUE
NA,0.15,NA,NA,NA,NA,NA,NA,NA,NA,j.PNG,j,573dacc5b3a71f00146e7d88,2021-10-19_12h53.18.170,forced_choiceRT,2021.1.2,Linux x86_64,60.0348202,NA,NA,NA,NA,NA,NA,NA,5,Ontime,j,1,2.0142,4,3,19,3,1,NA,NA,NA,NA,NA,2014.2000000000003,932.1000000000001,2,1,j,j,0,1,156.70000000000007,h,h,1,memory2,0.5,-0.5,0.9321000000000002,FALSE,FALSE,FALSE,FALSE
NA,1.72,NA,NA,NA,NA,NA,NA,NA,NA,h.PNG,h,573dacc5b3a71f00146e7d88,2021-10-19_12h53.18.170,forced_choiceRT,2021.1.2,Linux x86_64,60.0348202,NA,NA,NA,NA,NA,NA,NA,5,Ontime,j,0,2.0301,5,0,20,2,1,NA,NA,NA,NA,NA,2030.1,155.05,2,0,j,h,1,1,932.1000000000001,j,j,0,memory2,-0.5,-0.5,0.15505000000000002,TRUE,FALSE,FALSE,FALSE
NA,1.9,NA,NA,NA,NA,NA,NA,NA,NA,j.PNG,j,573dacc5b3a71f00146e7d88,2021-10-19_12h53.18.170,forced_choiceRT,2021.1.2,Linux x86_64,60.0348202,NA,NA,NA,NA,NA,NA,NA,5,Ontime,j,1,2.0503,5,1,21,3,1,NA,NA,NA,NA,NA,2050.3,75.15000000000005,2,1,j,j,1,0,155.05,j,h,1,memory2,-0.5,0.5,0.07515000000000005,TRUE,FALSE,TRUE,FALSE
NA,0.64,NA,NA,NA,NA,NA,NA,NA,NA,f.PNG,f,573dacc5b3a71f00146e7d88,2021-10-19_12h53.18.170,forced_choiceRT,2021.1.2,Linux x86_64,60.0348202,NA,NA,NA,NA,NA,NA,NA,5,Ontime,f,1,1.9148,5,3,23,0,1,NA,NA,NA,NA,NA,1914.8,637.4,2,1,f,f,1,0,167.79999999999995,h,j,1,memory2,-0.5,0.5,0.6374,FALSE,FALSE,FALSE,FALSE
NA,0.07,NA,NA,NA,NA,NA,NA,NA,NA,g.PNG,g,573dacc5b3a71f00146e7d88,2021-10-19_12h53.18.170,forced_choiceRT,2021.1.2,Linux x86_64,60.0348202,NA,NA,NA,NA,NA,NA,NA,5,Ontime,g,1,2.015,6,0,24,1,1,NA,NA,NA,NA,NA,2015.0000000000002,972.5,2,1,g,g,0,1,637.4,f,f,1,memory2,0.5,-0.5,0.9725,FALSE,FALSE,FALSE,FALSE
NA,0.25,NA,NA,NA,NA,NA,NA,NA,NA,f.PNG,f,573dacc5b3a71f00146e7d88,2021-10-19_12h53.18.170,forced_choiceRT,2021.1.2,Linux x86_64,60.0348202,NA,NA,NA,NA,NA,NA,NA,5,Ontime,f,1,2.0489,6,1,25,0,1,NA,NA,NA,NA,NA,2048.9,899.45,2,1,f,f,1,1,972.5,g,g,1,memory2,-0.5,-0.5,0.8994500000000001,FALSE,FALSE,FALSE,FALSE
NA,1.36,NA,NA,NA,NA,NA,NA,NA,NA,g.PNG,g,573dacc5b3a71f00146e7d88,2021-10-19_12h53.18.170,forced_choiceRT,2021.1.2,Linux x86_64,60.0348202,NA,NA,NA,NA,NA,NA,NA,5,Ontime,g,1,2.0509,6,3,27,1,1,NA,NA,NA,NA,NA,2050.9,345.44999999999993,2,1,g,g,1,0,144.3000000000001,h,j,1,memory2,-0.5,0.5,0.3454499999999999,FALSE,FALSE,FALSE,FALSE
NA,0.77,NA,NA,NA,NA,NA,NA,NA,NA,h.PNG,h,573dacc5b3a71f00146e7d88,2021-10-19_12h53.18.170,forced_choiceRT,2021.1.2,Linux x86_64,60.0348202,NA,NA,NA,NA,NA,NA,NA,5,Ontime,h,1,1.9668,7,0,28,2,1,NA,NA,NA,NA,NA,1966.8000000000002,598.4000000000001,2,1,h,h,0,1,345.44999999999993,g,g,1,memory2,0.5,-0.5,0.5984,FALSE,FALSE,FALSE,FALSE
NA,0.35,NA,NA,NA,NA,NA,NA,NA,NA,g.PNG,g,573dacc5b3a71f00146e7d88,2021-10-19_12h53.18.170,forced_choiceRT,2021.1.2,Linux x86_64,60.0348202,NA,NA,NA,NA,NA,NA,NA,5,Ontime,g,1,2.0315,7,1,29,1,1,NA,NA,NA,NA,NA,2031.4999999999998,840.7499999999999,2,1,g,g,1,1,598.4000000000001,h,h,1,memory2,-0.5,-0.5,0.8407499999999999,FALSE,FALSE,FALSE,FALSE
NA,0.21,NA,NA,NA,NA,NA,NA,NA,NA,h.PNG,h,573dacc5b3a71f00146e7d88,2021-10-19_12h53.18.170,forced_choiceRT,2021.1.2,Linux x86_64,60.0348202,NA,NA,NA,NA,NA,NA,NA,5,Ontime,h,1,1.9506,7,3,31,2,1,NA,NA,NA,NA,NA,1950.6,870.3,2,1,h,h,1,0,108.8,f,j,1,memory2,-0.5,0.5,0.8703,FALSE,FALSE,FALSE,FALSE
NA,1.07,NA,NA,NA,NA,NA,NA,NA,NA,f.PNG,f,573dacc5b3a71f00146e7d88,2021-10-19_12h53.18.170,forced_choiceRT,2021.1.2,Linux x86_64,60.0348202,NA,NA,NA,NA,NA,NA,NA,5,Ontime,f,1,1.9389,8,0,32,0,1,NA,NA,NA,NA,NA,1938.9,434.45,2,1,f,f,0,1,870.3,h,h,1,memory2,0.5,-0.5,0.43445,FALSE,FALSE,FALSE,FALSE
NA,1.86,NA,NA,NA,NA,NA,NA,NA,NA,g.PNG,g,573dacc5b3a71f00146e7d88,2021-10-19_12h53.18.170,forced_choiceRT,2021.1.2,Linux x86_64,60.0348202,NA,NA,NA,NA,NA,NA,NA,5,Ontime,h,0,1.9875,8,1,33,1,1,NA,NA,NA,NA,NA,1987.5,63.74999999999997,2,0,h,g,1,1,434.45,f,f,0,memory2,-0.5,-0.5,0.06374999999999997,FALSE,FALSE,FALSE,FALSE
NA,1.76,NA,NA,NA,NA,NA,NA,NA,NA,j.PNG,j,573dacc5b3a71f00146e7d88,2021-10-19_12h53.18.170,forced_choiceRT,2021.1.2,Linux x86_64,60.0348202,NA,NA,NA,NA,NA,NA,NA,5,Ontime,h,0,2.0474,8,2,34,3,1,NA,NA,NA,NA,NA,2047.4,143.70000000000005,2,0,h,j,1,0,63.74999999999997,h,g,0,memory2,-0.5,0.5,0.14370000000000005,TRUE,FALSE,FALSE,TRUE
NA,0.12,NA,NA,NA,NA,NA,NA,NA,NA,h.PNG,h,573dacc5b3a71f00146e7d88,2021-10-19_12h53.18.170,forced_choiceRT,2021.1.2,Linux x86_64,60.0348202,NA,NA,NA,NA,NA,NA,NA,5,Ontime,h,1,2.098,8,3,35,2,1,NA,NA,NA,NA,NA,2098,988.9999999999999,2,1,h,h,0,0,143.70000000000005,h,j,1,memory2,0.5,0.5,0.9889999999999999,TRUE,FALSE,TRUE,FALSE
NA,0.06,NA,NA,NA,NA,NA,NA,NA,NA,f.PNG,f,573dacc5b3a71f00146e7d88,2021-10-19_12h53.18.170,forced_choiceRT,2021.1.2,Linux x86_64,60.0348202,NA,NA,NA,NA,NA,NA,NA,5,Ontime,f,1,2.0217,9,0,36,0,1,NA,NA,NA,NA,NA,2021.7,980.85,2,1,f,f,0,1,988.9999999999999,h,h,1,memory2,0.5,-0.5,0.98085,FALSE,FALSE,FALSE,FALSE
NA,0.69,NA,NA,NA,NA,NA,NA,NA,NA,g.PNG,g,573dacc5b3a71f00146e7d88,2021-10-19_12h53.18.170,forced_choiceRT,2021.1.2,Linux x86_64,60.0348202,NA,NA,NA,NA,NA,NA,NA,5,Ontime,g,1,1.9842,9,1,37,1,1,NA,NA,NA,NA,NA,1984.2,647.1,2,1,g,g,1,1,980.85,f,f,1,memory2,-0.5,-0.5,0.6471,FALSE,FALSE,FALSE,FALSE
NA,0.56,NA,NA,NA,NA,NA,NA,NA,NA,f.PNG,f,573dacc5b3a71f00146e7d88,2021-10-19_12h53.18.170,forced_choiceRT,2021.1.2,Linux x86_64,60.0348202,NA,NA,NA,NA,NA,NA,NA,5,Ontime,f,1,1.9339,9,2,38,0,1,NA,NA,NA,NA,NA,1933.8999999999999,686.9499999999999,2,1,f,f,1,1,647.1,g,g,1,memory2,-0.5,-0.5,0.68695,FALSE,FALSE,FALSE,FALSE
NA,1.08,NA,NA,NA,NA,NA,NA,NA,NA,h.PNG,h,573dacc5b3a71f00146e7d88,2021-10-19_12h53.18.170,forced_choiceRT,2021.1.2,Linux x86_64,60.0348202,NA,NA,NA,NA,NA,NA,NA,5,Ontime,h,1,2.0817,9,3,39,2,1,NA,NA,NA,NA,NA,2081.7000000000003,500.85,2,1,h,h,1,1,686.9499999999999,f,f,1,memory2,-0.5,-0.5,0.50085,FALSE,FALSE,FALSE,FALSE
NA,1.18,NA,NA,NA,NA,NA,NA,NA,NA,f.PNG,f,573dacc5b3a71f00146e7d88,2021-10-19_12h53.18.170,forced_choiceRT,2021.1.2,Linux x86_64,60.0348202,NA,NA,NA,NA,NA,NA,NA,6,Ontime,f,1,1.9499,0,0,0,0,1,NA,NA,NA,NA,NA,1949.8999999999999,384.95,2,1,f,f,1,1,500.85,h,h,1,memory2,-0.5,-0.5,0.38495,FALSE,FALSE,FALSE,FALSE
NA,0.75,NA,NA,NA,NA,NA,NA,NA,NA,h.PNG,h,573dacc5b3a71f00146e7d88,2021-10-19_12h53.18.170,forced_choiceRT,2021.1.2,Linux x86_64,60.0348202,NA,NA,NA,NA,NA,NA,NA,6,Ontime,h,1,2.0479,0,3,3,2,1,NA,NA,NA,NA,NA,2047.8999999999999,648.9499999999999,2,1,h,h,1,1,415.84999999999997,j,j,1,memory2,-0.5,-0.5,0.6489499999999999,FALSE,FALSE,FALSE,FALSE
NA,0.49,NA,NA,NA,NA,NA,NA,NA,NA,j.PNG,j,573dacc5b3a71f00146e7d88,2021-10-19_12h53.18.170,forced_choiceRT,2021.1.2,Linux x86_64,60.0348202,NA,NA,NA,NA,NA,NA,NA,6,Ontime,j,1,2.0858,1,1,5,3,1,NA,NA,NA,NA,NA,2085.7999999999997,797.9,2,1,j,j,1,1,618.25,f,f,1,memory2,-0.5,-0.5,0.7978999999999999,FALSE,FALSE,FALSE,FALSE
NA,0.64,NA,NA,NA,NA,NA,NA,NA,NA,j.PNG,j,573dacc5b3a71f00146e7d88,2021-10-19_12h53.18.170,forced_choiceRT,2021.1.2,Linux x86_64,60.0348202,NA,NA,NA,NA,NA,NA,NA,6,Ontime,j,1,2.0527,2,1,9,3,1,NA,NA,NA,NA,NA,2052.7000000000003,706.35,2,1,j,j,1,0,6.05,h,f,1,memory2,-0.5,0.5,0.70635,FALSE,FALSE,FALSE,TRUE
NA,0.27,NA,NA,NA,NA,NA,NA,NA,NA,g.PNG,g,573dacc5b3a71f00146e7d88,2021-10-19_12h53.18.170,forced_choiceRT,2021.1.2,Linux x86_64,60.0348202,NA,NA,NA,NA,NA,NA,NA,6,Ontime,g,1,2.0648,2,3,11,1,1,NA,NA,NA,NA,NA,2064.8,897.4,2,1,g,g,1,1,1006.85,j,j,1,memory2,-0.5,-0.5,0.8974,FALSE,FALSE,FALSE,FALSE
NA,0.27,NA,NA,NA,NA,NA,NA,NA,NA,g.PNG,g,573dacc5b3a71f00146e7d88,2021-10-19_12h53.18.170,forced_choiceRT,2021.1.2,Linux x86_64,60.0348202,NA,NA,NA,NA,NA,NA,NA,6,Ontime,g,1,2.0828,3,0,12,1,1,NA,NA,NA,NA,NA,2082.8,906.4000000000001,2,1,g,g,1,1,897.4,g,g,1,memory2,-0.5,-0.5,0.9064000000000001,TRUE,TRUE,TRUE,FALSE
NA,0.49,NA,NA,NA,NA,NA,NA,NA,NA,h.PNG,h,573dacc5b3a71f00146e7d88,2021-10-19_12h53.18.170,forced_choiceRT,2021.1.2,Linux x86_64,60.0348202,NA,NA,NA,NA,NA,NA,NA,6,Ontime,h,1,1.9999,3,1,13,2,1,NA,NA,NA,NA,NA,1999.9,754.95,2,1,h,h,1,1,906.4000000000001,g,g,1,memory2,-0.5,-0.5,0.75495,FALSE,FALSE,FALSE,FALSE
NA,0.38,NA,NA,NA,NA,NA,NA,NA,NA,g.PNG,g,573dacc5b3a71f00146e7d88,2021-10-19_12h53.18.170,forced_choiceRT,2021.1.2,Linux x86_64,60.0348202,NA,NA,NA,NA,NA,NA,NA,6,Ontime,g,1,1.9664,3,2,14,1,1,NA,NA,NA,NA,NA,1966.3999999999999,793.1999999999999,2,1,g,g,1,1,754.95,h,h,1,memory2,-0.5,-0.5,0.7931999999999999,FALSE,FALSE,FALSE,FALSE
NA,1.8,NA,NA,NA,NA,NA,NA,NA,NA,h.PNG,h,573dacc5b3a71f00146e7d88,2021-10-19_12h53.18.170,forced_choiceRT,2021.1.2,Linux x86_64,60.0348202,NA,NA,NA,NA,NA,NA,NA,6,Ontime,h,1,2.0853,3,3,15,2,1,NA,NA,NA,NA,NA,2085.3,142.65000000000006,2,1,h,h,1,1,793.1999999999999,g,g,1,memory2,-0.5,-0.5,0.14265000000000005,FALSE,FALSE,FALSE,FALSE
NA,0.77,NA,NA,NA,NA,NA,NA,NA,NA,f.PNG,f,573dacc5b3a71f00146e7d88,2021-10-19_12h53.18.170,forced_choiceRT,2021.1.2,Linux x86_64,60.0348202,NA,NA,NA,NA,NA,NA,NA,6,Ontime,f,1,1.9223,4,1,17,0,1,NA,NA,NA,NA,NA,1922.3,576.15,2,1,f,f,1,1,492,f,f,1,memory2,-0.5,-0.5,0.5761499999999999,TRUE,TRUE,TRUE,FALSE
NA,0.97,NA,NA,NA,NA,NA,NA,NA,NA,f.PNG,f,573dacc5b3a71f00146e7d88,2021-10-19_12h53.18.170,forced_choiceRT,2021.1.2,Linux x86_64,60.0348202,NA,NA,NA,NA,NA,NA,NA,6,Ontime,f,1,1.9695,4,3,19,0,1,NA,NA,NA,NA,NA,1969.5,499.75,2,1,f,f,1,1,510.49999999999994,g,g,1,memory2,-0.5,-0.5,0.49975,FALSE,FALSE,FALSE,FALSE
NA,0.86,NA,NA,NA,NA,NA,NA,NA,NA,h.PNG,h,573dacc5b3a71f00146e7d88,2021-10-19_12h53.18.170,forced_choiceRT,2021.1.2,Linux x86_64,60.0348202,NA,NA,NA,NA,NA,NA,NA,6,Ontime,h,1,2.0346,5,0,20,2,1,NA,NA,NA,NA,NA,2034.6000000000001,587.3000000000002,2,1,h,h,1,1,499.75,f,f,1,memory2,-0.5,-0.5,0.5873000000000002,FALSE,FALSE,FALSE,FALSE
NA,1,NA,NA,NA,NA,NA,NA,NA,NA,j.PNG,j,573dacc5b3a71f00146e7d88,2021-10-19_12h53.18.170,forced_choiceRT,2021.1.2,Linux x86_64,60.0348202,NA,NA,NA,NA,NA,NA,NA,6,Ontime,j,1,1.9473,5,2,22,3,1,NA,NA,NA,NA,NA,1947.3,473.65000000000003,2,1,j,j,1,1,636.5000000000001,j,j,1,memory2,-0.5,-0.5,0.47365,TRUE,TRUE,TRUE,FALSE
NA,0.48,NA,NA,NA,NA,NA,NA,NA,NA,f.PNG,f,573dacc5b3a71f00146e7d88,2021-10-19_12h53.18.170,forced_choiceRT,2021.1.2,Linux x86_64,60.0348202,NA,NA,NA,NA,NA,NA,NA,6,Ontime,f,1,2.0013,5,3,23,0,1,NA,NA,NA,NA,NA,2001.3000000000002,760.6500000000001,2,1,f,f,1,1,473.65000000000003,j,j,1,memory2,-0.5,-0.5,0.76065,FALSE,FALSE,FALSE,FALSE
NA,1.37,NA,NA,NA,NA,NA,NA,NA,NA,f.PNG,f,573dacc5b3a71f00146e7d88,2021-10-19_12h53.18.170,forced_choiceRT,2021.1.2,Linux x86_64,60.0348202,NA,NA,NA,NA,NA,NA,NA,6,Ontime,f,1,2.002,6,0,24,0,1,NA,NA,NA,NA,NA,2001.9999999999998,315.99999999999983,2,1,f,f,1,1,760.6500000000001,f,f,1,memory2,-0.5,-0.5,0.31599999999999984,TRUE,TRUE,TRUE,FALSE
NA,1.34,NA,NA,NA,NA,NA,NA,NA,NA,h.PNG,h,573dacc5b3a71f00146e7d88,2021-10-19_12h53.18.170,forced_choiceRT,2021.1.2,Linux x86_64,60.0348202,NA,NA,NA,NA,NA,NA,NA,6,Ontime,f,0,2.0354,6,2,26,2,1,NA,NA,NA,NA,NA,2035.4,347.7,2,0,f,h,1,1,261.6499999999999,f,f,0,memory2,-0.5,-0.5,0.3477,TRUE,FALSE,FALSE,FALSE
NA,0.45,NA,NA,NA,NA,NA,NA,NA,NA,j.PNG,j,573dacc5b3a71f00146e7d88,2021-10-19_12h53.18.170,forced_choiceRT,2021.1.2,Linux x86_64,60.0348202,NA,NA,NA,NA,NA,NA,NA,6,Ontime,j,1,2.0686,6,3,27,3,1,NA,NA,NA,NA,NA,2068.6,809.3000000000001,2,1,j,j,1,0,347.7,f,h,1,memory2,-0.5,0.5,0.8093,FALSE,FALSE,FALSE,FALSE
NA,0.86,NA,NA,NA,NA,NA,NA,NA,NA,h.PNG,h,573dacc5b3a71f00146e7d88,2021-10-19_12h53.18.170,forced_choiceRT,2021.1.2,Linux x86_64,60.0348202,NA,NA,NA,NA,NA,NA,NA,6,Ontime,h,1,1.9325,7,0,28,2,1,NA,NA,NA,NA,NA,1932.5,536.2500000000001,2,1,h,h,0,1,809.3000000000001,j,j,1,memory2,0.5,-0.5,0.5362500000000001,FALSE,FALSE,FALSE,FALSE
NA,0.41,NA,NA,NA,NA,NA,NA,NA,NA,j.PNG,j,573dacc5b3a71f00146e7d88,2021-10-19_12h53.18.170,forced_choiceRT,2021.1.2,Linux x86_64,60.0348202,NA,NA,NA,NA,NA,NA,NA,6,Ontime,j,1,2.0985,7,1,29,3,1,NA,NA,NA,NA,NA,2098.5,844.25,2,1,j,j,1,1,536.2500000000001,h,h,1,memory2,-0.5,-0.5,0.84425,FALSE,FALSE,FALSE,FALSE
NA,0.54,NA,NA,NA,NA,NA,NA,NA,NA,g.PNG,g,573dacc5b3a71f00146e7d88,2021-10-19_12h53.18.170,forced_choiceRT,2021.1.2,Linux x86_64,60.0348202,NA,NA,NA,NA,NA,NA,NA,6,Ontime,g,1,2.0334,7,3,31,1,1,NA,NA,NA,NA,NA,2033.3999999999999,746.6999999999999,2,1,g,g,1,0,42.75000000000001,f,g,1,memory2,-0.5,0.5,0.7466999999999999,FALSE,TRUE,FALSE,TRUE
NA,0.71,NA,NA,NA,NA,NA,NA,NA,NA,g.PNG,g,573dacc5b3a71f00146e7d88,2021-10-19_12h53.18.170,forced_choiceRT,2021.1.2,Linux x86_64,60.0348202,NA,NA,NA,NA,NA,NA,NA,6,Ontime,g,1,2.0719,8,0,32,1,1,NA,NA,NA,NA,NA,2071.8999999999996,680.9499999999999,2,1,g,g,0,1,746.6999999999999,g,g,1,memory2,0.5,-0.5,0.6809499999999999,TRUE,TRUE,TRUE,FALSE
NA,0.15,NA,NA,NA,NA,NA,NA,NA,NA,g.PNG,g,573dacc5b3a71f00146e7d88,2021-10-19_12h53.18.170,forced_choiceRT,2021.1.2,Linux x86_64,60.0348202,NA,NA,NA,NA,NA,NA,NA,6,Ontime,g,1,2.0231,8,1,33,1,1,NA,NA,NA,NA,NA,2023.1,936.55,2,1,g,g,1,1,680.9499999999999,g,g,1,memory2,-0.5,-0.5,0.93655,TRUE,TRUE,TRUE,FALSE
NA,1.84,NA,NA,NA,NA,NA,NA,NA,NA,h.PNG,h,573dacc5b3a71f00146e7d88,2021-10-19_12h53.18.170,forced_choiceRT,2021.1.2,Linux x86_64,60.0348202,NA,NA,NA,NA,NA,NA,NA,6,Ontime,g,0,2.0478,8,3,35,2,1,NA,NA,NA,NA,NA,2047.8,103.89999999999999,2,0,g,h,1,1,324.55,f,f,0,memory2,-0.5,-0.5,0.10389999999999999,FALSE,FALSE,FALSE,FALSE
NA,0.67,NA,NA,NA,NA,NA,NA,NA,NA,h.PNG,h,573dacc5b3a71f00146e7d88,2021-10-19_12h53.18.170,forced_choiceRT,2021.1.2,Linux x86_64,60.0348202,NA,NA,NA,NA,NA,NA,NA,6,Ontime,h,1,2.0491,9,0,36,2,1,NA,NA,NA,NA,NA,2049.1000000000004,689.5500000000001,2,1,h,h,1,0,103.89999999999999,g,h,1,memory2,-0.5,0.5,0.6895500000000001,FALSE,TRUE,FALSE,FALSE
NA,1.43,NA,NA,NA,NA,NA,NA,NA,NA,g.PNG,g,573dacc5b3a71f00146e7d88,2021-10-19_12h53.18.170,forced_choiceRT,2021.1.2,Linux x86_64,60.0348202,NA,NA,NA,NA,NA,NA,NA,6,Ontime,h,0,2.0833,9,2,38,1,1,NA,NA,NA,NA,NA,2083.2999999999997,326.65,2,0,h,g,1,0,151.60000000000008,h,j,0,memory2,-0.5,0.5,0.32665,TRUE,FALSE,FALSE,FALSE
NA,0.37,NA,NA,NA,NA,NA,NA,NA,NA,j.PNG,j,573dacc5b3a71f00146e7d88,2021-10-19_12h53.18.170,forced_choiceRT,2021.1.2,Linux x86_64,60.0348202,NA,NA,NA,NA,NA,NA,NA,6,Ontime,j,1,2.082,9,3,39,3,1,NA,NA,NA,NA,NA,2082,855.9999999999999,2,1,j,j,0,0,326.65,h,g,1,memory2,0.5,0.5,0.8559999999999999,FALSE,FALSE,FALSE,FALSE
NA,0.81,NA,NA,NA,NA,NA,NA,NA,NA,f.PNG,f,573dacc5b3a71f00146e7d88,2021-10-19_12h53.18.170,forced_choiceRT,2021.1.2,Linux x86_64,60.0348202,NA,NA,NA,NA,NA,NA,NA,7,Ontime,f,1,2.068,0,0,0,0,1,NA,NA,NA,NA,NA,2068,629,2,1,f,f,0,1,855.9999999999999,j,j,1,memory2,0.5,-0.5,0.629,FALSE,FALSE,FALSE,FALSE
NA,1.19,NA,NA,NA,NA,NA,NA,NA,NA,h.PNG,h,573dacc5b3a71f00146e7d88,2021-10-19_12h53.18.170,forced_choiceRT,2021.1.2,Linux x86_64,60.0348202,NA,NA,NA,NA,NA,NA,NA,7,Ontime,h,1,1.9042,0,1,1,2,1,NA,NA,NA,NA,NA,1904.1999999999998,357.09999999999997,2,1,h,h,1,1,629,f,f,1,memory2,-0.5,-0.5,0.3571,FALSE,FALSE,FALSE,FALSE
NA,0.38,NA,NA,NA,NA,NA,NA,NA,NA,g.PNG,g,573dacc5b3a71f00146e7d88,2021-10-19_12h53.18.170,forced_choiceRT,2021.1.2,Linux x86_64,60.0348202,NA,NA,NA,NA,NA,NA,NA,7,Ontime,g,1,2.0643,0,2,2,1,1,NA,NA,NA,NA,NA,2064.2999999999997,842.15,2,1,g,g,1,1,357.09999999999997,h,h,1,memory2,-0.5,-0.5,0.84215,FALSE,FALSE,FALSE,FALSE
NA,1.71,NA,NA,NA,NA,NA,NA,NA,NA,h.PNG,h,573dacc5b3a71f00146e7d88,2021-10-19_12h53.18.170,forced_choiceRT,2021.1.2,Linux x86_64,60.0348202,NA,NA,NA,NA,NA,NA,NA,7,Ontime,h,1,2.0702,1,0,4,2,1,NA,NA,NA,NA,NA,2070.2,180.09999999999994,2,1,h,h,1,0,326.7,h,j,1,memory2,-0.5,0.5,0.18009999999999993,TRUE,FALSE,TRUE,FALSE
NA,1.65,NA,NA,NA,NA,NA,NA,NA,NA,f.PNG,f,573dacc5b3a71f00146e7d88,2021-10-19_12h53.18.170,forced_choiceRT,2021.1.2,Linux x86_64,60.0348202,NA,NA,NA,NA,NA,NA,NA,7,Ontime,h,0,2.0782,1,1,5,0,1,NA,NA,NA,NA,NA,2078.2,214.09999999999997,2,0,h,f,0,1,180.09999999999994,h,h,0,memory2,0.5,-0.5,0.21409999999999996,TRUE,FALSE,FALSE,FALSE
NA,1.03,NA,NA,NA,NA,NA,NA,NA,NA,j.PNG,j,573dacc5b3a71f00146e7d88,2021-10-19_12h53.18.170,forced_choiceRT,2021.1.2,Linux x86_64,60.0348202,NA,NA,NA,NA,NA,NA,NA,7,Ontime,j,1,2.0153,1,2,6,3,1,NA,NA,NA,NA,NA,2015.3,492.6499999999999,2,1,j,j,1,0,214.09999999999997,h,f,1,memory2,-0.5,0.5,0.4926499999999999,FALSE,FALSE,FALSE,FALSE
NA,0.07,NA,NA,NA,NA,NA,NA,NA,NA,h.PNG,h,573dacc5b3a71f00146e7d88,2021-10-19_12h53.18.170,forced_choiceRT,2021.1.2,Linux x86_64,60.0348202,NA,NA,NA,NA,NA,NA,NA,7,Ontime,h,1,2.0297,1,3,7,2,1,NA,NA,NA,NA,NA,2029.7,979.85,2,1,h,h,0,1,492.6499999999999,j,j,1,memory2,0.5,-0.5,0.97985,FALSE,FALSE,FALSE,FALSE
NA,1.32,NA,NA,NA,NA,NA,NA,NA,NA,g.PNG,g,573dacc5b3a71f00146e7d88,2021-10-19_12h53.18.170,forced_choiceRT,2021.1.2,Linux x86_64,60.0348202,NA,NA,NA,NA,NA,NA,NA,7,Ontime,g,1,1.9994,2,0,8,1,1,NA,NA,NA,NA,NA,1999.4,339.7,2,1,g,g,1,1,979.85,h,h,1,memory2,-0.5,-0.5,0.3397,FALSE,FALSE,FALSE,FALSE
NA,0.58,NA,NA,NA,NA,NA,NA,NA,NA,g.PNG,g,573dacc5b3a71f00146e7d88,2021-10-19_12h53.18.170,forced_choiceRT,2021.1.2,Linux x86_64,60.0348202,NA,NA,NA,NA,NA,NA,NA,7,Ontime,g,1,2.0318,2,2,10,1,1,NA,NA,NA,NA,NA,2031.8,725.9,2,1,g,g,1,1,643.6500000000001,j,j,1,memory2,-0.5,-0.5,0.7259,FALSE,FALSE,FALSE,FALSE
NA,1.88,NA,NA,NA,NA,NA,NA,NA,NA,f.PNG,f,573dacc5b3a71f00146e7d88,2021-10-19_12h53.18.170,forced_choiceRT,2021.1.2,Linux x86_64,60.0348202,NA,NA,NA,NA,NA,NA,NA,7,Ontime,h,0,1.9998,2,3,11,0,1,NA,NA,NA,NA,NA,1999.8,59.90000000000006,2,0,h,f,1,1,725.9,g,g,0,memory2,-0.5,-0.5,0.059900000000000064,FALSE,FALSE,FALSE,FALSE
NA,1.45,NA,NA,NA,NA,NA,NA,NA,NA,j.PNG,j,573dacc5b3a71f00146e7d88,2021-10-19_12h53.18.170,forced_choiceRT,2021.1.2,Linux x86_64,60.0348202,NA,NA,NA,NA,NA,NA,NA,7,Ontime,h,0,1.9493,3,0,12,3,1,NA,NA,NA,NA,NA,1949.3,249.65000000000003,2,0,h,j,1,0,59.90000000000006,h,f,0,memory2,-0.5,0.5,0.24965000000000004,TRUE,FALSE,FALSE,TRUE
NA,1.52,NA,NA,NA,NA,NA,NA,NA,NA,f.PNG,f,573dacc5b3a71f00146e7d88,2021-10-19_12h53.18.170,forced_choiceRT,2021.1.2,Linux x86_64,60.0348202,NA,NA,NA,NA,NA,NA,NA,7,Ontime,g,0,2.0505,3,2,14,0,1,NA,NA,NA,NA,NA,2050.5,265.25,2,0,g,f,0,0,1011.15,h,f,0,memory2,0.5,0.5,0.26525,FALSE,TRUE,FALSE,FALSE
NA,1.9,NA,NA,NA,NA,NA,NA,NA,NA,g.PNG,g,573dacc5b3a71f00146e7d88,2021-10-19_12h53.18.170,forced_choiceRT,2021.1.2,Linux x86_64,60.0348202,NA,NA,NA,NA,NA,NA,NA,7,Ontime,h,0,1.9329,3,3,15,1,1,NA,NA,NA,NA,NA,1932.9,16.450000000000074,2,0,h,g,0,0,265.25,g,f,0,memory2,0.5,0.5,0.016450000000000072,FALSE,FALSE,TRUE,FALSE
NA,1.02,NA,NA,NA,NA,NA,NA,NA,NA,h.PNG,h,573dacc5b3a71f00146e7d88,2021-10-19_12h53.18.170,forced_choiceRT,2021.1.2,Linux x86_64,60.0348202,NA,NA,NA,NA,NA,NA,NA,7,Ontime,h,1,1.9359,4,1,17,2,1,NA,NA,NA,NA,NA,1935.8999999999999,457.95,2,1,h,h,0,0,106.39999999999993,f,j,1,memory2,0.5,0.5,0.45794999999999997,FALSE,FALSE,FALSE,FALSE
NA,1.37,NA,NA,NA,NA,NA,NA,NA,NA,h.PNG,h,573dacc5b3a71f00146e7d88,2021-10-19_12h53.18.170,forced_choiceRT,2021.1.2,Linux x86_64,60.0348202,NA,NA,NA,NA,NA,NA,NA,7,Ontime,h,1,1.9943,4,2,18,2,1,NA,NA,NA,NA,NA,1994.3,312.1499999999999,2,1,h,h,0,1,457.95,h,h,1,memory2,0.5,-0.5,0.3121499999999999,TRUE,TRUE,TRUE,FALSE
NA,0.87,NA,NA,NA,NA,NA,NA,NA,NA,f.PNG,f,573dacc5b3a71f00146e7d88,2021-10-19_12h53.18.170,forced_choiceRT,2021.1.2,Linux x86_64,60.0348202,NA,NA,NA,NA,NA,NA,NA,7,Ontime,f,1,2.0329,4,3,19,0,1,NA,NA,NA,NA,NA,2032.9,581.45,2,1,f,f,1,1,312.1499999999999,h,h,1,memory2,-0.5,-0.5,0.58145,FALSE,FALSE,FALSE,FALSE
NA,1.19,NA,NA,NA,NA,NA,NA,NA,NA,f.PNG,f,573dacc5b3a71f00146e7d88,2021-10-19_12h53.18.170,forced_choiceRT,2021.1.2,Linux x86_64,60.0348202,NA,NA,NA,NA,NA,NA,NA,7,Ontime,f,1,1.9641,5,0,20,0,1,NA,NA,NA,NA,NA,1964.1,387.05,2,1,f,f,1,1,581.45,f,f,1,memory2,-0.5,-0.5,0.38705,TRUE,TRUE,TRUE,FALSE
NA,0.94,NA,NA,NA,NA,NA,NA,NA,NA,j.PNG,j,573dacc5b3a71f00146e7d88,2021-10-19_12h53.18.170,forced_choiceRT,2021.1.2,Linux x86_64,60.0348202,NA,NA,NA,NA,NA,NA,NA,7,Ontime,j,1,1.916,5,2,22,3,1,NA,NA,NA,NA,NA,1916,488,2,1,j,j,1,0,266.15,h,g,1,memory2,-0.5,0.5,0.488,FALSE,FALSE,FALSE,FALSE
NA,0.04,NA,NA,NA,NA,NA,NA,NA,NA,j.PNG,j,573dacc5b3a71f00146e7d88,2021-10-19_12h53.18.170,forced_choiceRT,2021.1.2,Linux x86_64,60.0348202,NA,NA,NA,NA,NA,NA,NA,7,Ontime,j,1,1.9485,5,3,23,3,1,NA,NA,NA,NA,NA,1948.5,954.2499999999999,2,1,j,j,0,1,488,j,j,1,memory2,0.5,-0.5,0.9542499999999999,TRUE,TRUE,TRUE,FALSE
NA,1.75,NA,NA,NA,NA,NA,NA,NA,NA,j.PNG,j,573dacc5b3a71f00146e7d88,2021-10-19_12h53.18.170,forced_choiceRT,2021.1.2,Linux x86_64,60.0348202,NA,NA,NA,NA,NA,NA,NA,7,Ontime,h,0,2.0177,6,0,24,3,1,NA,NA,NA,NA,NA,2017.7,133.85000000000002,2,0,h,j,1,1,954.2499999999999,j,j,0,memory2,-0.5,-0.5,0.13385000000000002,FALSE,TRUE,TRUE,FALSE
NA,1.44,NA,NA,NA,NA,NA,NA,NA,NA,g.PNG,g,573dacc5b3a71f00146e7d88,2021-10-19_12h53.18.170,forced_choiceRT,2021.1.2,Linux x86_64,60.0348202,NA,NA,NA,NA,NA,NA,NA,7,Ontime,h,0,1.9687,6,1,25,1,1,NA,NA,NA,NA,NA,1968.6999999999998,264.34999999999997,2,0,h,g,1,0,133.85000000000002,h,j,0,memory2,-0.5,0.5,0.26435,TRUE,FALSE,FALSE,FALSE
NA,1.86,NA,NA,NA,NA,NA,NA,NA,NA,f.PNG,f,573dacc5b3a71f00146e7d88,2021-10-19_12h53.18.170,forced_choiceRT,2021.1.2,Linux x86_64,60.0348202,NA,NA,NA,NA,NA,NA,NA,7,Ontime,h,0,1.9607,6,2,26,0,1,NA,NA,NA,NA,NA,1960.7,50.35000000000001,2,0,h,f,0,0,264.34999999999997,h,g,0,memory2,0.5,0.5,0.050350000000000006,TRUE,FALSE,FALSE,FALSE
NA,0.12,NA,NA,NA,NA,NA,NA,NA,NA,h.PNG,h,573dacc5b3a71f00146e7d88,2021-10-19_12h53.18.170,forced_choiceRT,2021.1.2,Linux x86_64,60.0348202,NA,NA,NA,NA,NA,NA,NA,7,Ontime,h,1,2.0003,6,3,27,2,1,NA,NA,NA,NA,NA,2000.3000000000002,940.1500000000001,2,1,h,h,0,0,50.35000000000001,h,f,1,memory2,0.5,0.5,0.94015,TRUE,FALSE,TRUE,TRUE
NA,0.06,NA,NA,NA,NA,NA,NA,NA,NA,j.PNG,j,573dacc5b3a71f00146e7d88,2021-10-19_12h53.18.170,forced_choiceRT,2021.1.2,Linux x86_64,60.0348202,NA,NA,NA,NA,NA,NA,NA,7,Ontime,j,1,2.0497,7,0,28,3,1,NA,NA,NA,NA,NA,2049.7000000000003,994.85,2,1,j,j,0,1,940.1500000000001,h,h,1,memory2,0.5,-0.5,0.99485,FALSE,FALSE,FALSE,FALSE
NA,0.54,NA,NA,NA,NA,NA,NA,NA,NA,h.PNG,h,573dacc5b3a71f00146e7d88,2021-10-19_12h53.18.170,forced_choiceRT,2021.1.2,Linux x86_64,60.0348202,NA,NA,NA,NA,NA,NA,NA,7,Ontime,h,1,2.0672,7,1,29,2,1,NA,NA,NA,NA,NA,2067.2000000000003,763.6,2,1,h,h,1,1,994.85,j,j,1,memory2,-0.5,-0.5,0.7636000000000001,FALSE,FALSE,FALSE,FALSE
NA,0.83,NA,NA,NA,NA,NA,NA,NA,NA,g.PNG,g,573dacc5b3a71f00146e7d88,2021-10-19_12h53.18.170,forced_choiceRT,2021.1.2,Linux x86_64,60.0348202,NA,NA,NA,NA,NA,NA,NA,7,Ontime,g,1,2.0162,7,3,31,1,1,NA,NA,NA,NA,NA,2016.2,593.0999999999999,2,1,g,g,1,1,345.75,h,h,1,memory2,-0.5,-0.5,0.5931,FALSE,FALSE,FALSE,FALSE
NA,1.45,NA,NA,NA,NA,NA,NA,NA,NA,h.PNG,h,573dacc5b3a71f00146e7d88,2021-10-19_12h53.18.170,forced_choiceRT,2021.1.2,Linux x86_64,60.0348202,NA,NA,NA,NA,NA,NA,NA,7,Ontime,h,1,1.9945,8,0,32,2,1,NA,NA,NA,NA,NA,1994.5,272.25,2,1,h,h,1,1,593.0999999999999,g,g,1,memory2,-0.5,-0.5,0.27225,FALSE,FALSE,FALSE,FALSE
NA,1.19,NA,NA,NA,NA,NA,NA,NA,NA,h.PNG,h,573dacc5b3a71f00146e7d88,2021-10-19_12h53.18.170,forced_choiceRT,2021.1.2,Linux x86_64,60.0348202,NA,NA,NA,NA,NA,NA,NA,7,Ontime,h,1,2.0166,8,2,34,2,1,NA,NA,NA,NA,NA,2016.6,413.3,2,1,h,h,1,1,318.24999999999994,f,f,1,memory2,-0.5,-0.5,0.4133,FALSE,FALSE,FALSE,FALSE
NA,1.58,NA,NA,NA,NA,NA,NA,NA,NA,g.PNG,g,573dacc5b3a71f00146e7d88,2021-10-19_12h53.18.170,forced_choiceRT,2021.1.2,Linux x86_64,60.0348202,NA,NA,NA,NA,NA,NA,NA,7,Ontime,g,1,1.9155,9,0,36,1,1,NA,NA,NA,NA,NA,1915.5,167.74999999999994,2,1,g,g,1,1,975.5500000000002,g,g,1,memory2,-0.5,-0.5,0.16774999999999995,TRUE,TRUE,TRUE,FALSE
NA,0.11,NA,NA,NA,NA,NA,NA,NA,NA,g.PNG,g,573dacc5b3a71f00146e7d88,2021-10-19_12h53.18.170,forced_choiceRT,2021.1.2,Linux x86_64,60.0348202,NA,NA,NA,NA,NA,NA,NA,7,Ontime,g,1,2.0774,9,1,37,1,1,NA,NA,NA,NA,NA,2077.4,983.6999999999999,2,1,g,g,1,1,167.74999999999994,g,g,1,memory2,-0.5,-0.5,0.9836999999999999,TRUE,TRUE,TRUE,FALSE
NA,1.29,NA,NA,NA,NA,NA,NA,NA,NA,j.PNG,j,573dacc5b3a71f00146e7d88,2021-10-19_12h53.18.170,forced_choiceRT,2021.1.2,Linux x86_64,60.0348202,NA,NA,NA,NA,NA,NA,NA,8,Ontime,j,1,2.0336,0,0,0,3,1,NA,NA,NA,NA,NA,2033.6,371.7999999999999,2,1,j,j,0,0,168.69999999999996,h,f,1,memory2,0.5,0.5,0.3717999999999999,FALSE,FALSE,FALSE,FALSE
NA,0.09,NA,NA,NA,NA,NA,NA,NA,NA,g.PNG,g,573dacc5b3a71f00146e7d88,2021-10-19_12h53.18.170,forced_choiceRT,2021.1.2,Linux x86_64,60.0348202,NA,NA,NA,NA,NA,NA,NA,8,Ontime,g,1,2.0389,0,1,1,1,1,NA,NA,NA,NA,NA,2038.8999999999999,974.4499999999999,2,1,g,g,0,1,371.7999999999999,j,j,1,memory2,0.5,-0.5,0.9744499999999999,FALSE,FALSE,FALSE,FALSE
NA,1.27,NA,NA,NA,NA,NA,NA,NA,NA,h.PNG,h,573dacc5b3a71f00146e7d88,2021-10-19_12h53.18.170,forced_choiceRT,2021.1.2,Linux x86_64,60.0348202,NA,NA,NA,NA,NA,NA,NA,8,Ontime,j,0,2.0955,0,2,2,2,1,NA,NA,NA,NA,NA,2095.5,412.74999999999994,2,0,j,h,1,1,974.4499999999999,g,g,0,memory2,-0.5,-0.5,0.41274999999999995,FALSE,FALSE,FALSE,FALSE
NA,1.14,NA,NA,NA,NA,NA,NA,NA,NA,h.PNG,h,573dacc5b3a71f00146e7d88,2021-10-19_12h53.18.170,forced_choiceRT,2021.1.2,Linux x86_64,60.0348202,NA,NA,NA,NA,NA,NA,NA,8,Ontime,h,1,1.9871,0,3,3,2,1,NA,NA,NA,NA,NA,1987.1000000000001,423.55000000000007,2,1,h,h,1,0,412.74999999999994,j,h,1,memory2,-0.5,0.5,0.4235500000000001,FALSE,TRUE,FALSE,FALSE
NA,0.24,NA,NA,NA,NA,NA,NA,NA,NA,f.PNG,f,573dacc5b3a71f00146e7d88,2021-10-19_12h53.18.170,forced_choiceRT,2021.1.2,Linux x86_64,60.0348202,NA,NA,NA,NA,NA,NA,NA,8,Ontime,f,1,2.0519,1,0,4,0,1,NA,NA,NA,NA,NA,2051.8999999999996,905.9499999999999,2,1,f,f,0,1,423.55000000000007,h,h,1,memory2,0.5,-0.5,0.9059499999999999,FALSE,FALSE,FALSE,FALSE
NA,0.41,NA,NA,NA,NA,NA,NA,NA,NA,j.PNG,j,573dacc5b3a71f00146e7d88,2021-10-19_12h53.18.170,forced_choiceRT,2021.1.2,Linux x86_64,60.0348202,NA,NA,NA,NA,NA,NA,NA,8,Ontime,j,1,1.9658,1,2,6,3,1,NA,NA,NA,NA,NA,1965.8,777.9000000000001,2,1,j,j,1,1,336.04999999999984,h,h,1,memory2,-0.5,-0.5,0.7779,FALSE,FALSE,FALSE,FALSE
NA,1.35,NA,NA,NA,NA,NA,NA,NA,NA,j.PNG,j,573dacc5b3a71f00146e7d88,2021-10-19_12h53.18.170,forced_choiceRT,2021.1.2,Linux x86_64,60.0348202,NA,NA,NA,NA,NA,NA,NA,8,Ontime,j,1,2.0202,2,0,8,3,1,NA,NA,NA,NA,NA,2020.2,335.09999999999997,2,1,j,j,1,1,295.05,f,f,1,memory2,-0.5,-0.5,0.33509999999999995,FALSE,FALSE,FALSE,FALSE
NA,1.02,NA,NA,NA,NA,NA,NA,NA,NA,f.PNG,f,573dacc5b3a71f00146e7d88,2021-10-19_12h53.18.170,forced_choiceRT,2021.1.2,Linux x86_64,60.0348202,NA,NA,NA,NA,NA,NA,NA,8,Ontime,f,1,1.9993,2,1,9,0,1,NA,NA,NA,NA,NA,1999.3000000000002,489.65000000000003,2,1,f,f,1,1,335.09999999999997,j,j,1,memory2,-0.5,-0.5,0.48965000000000003,FALSE,FALSE,FALSE,FALSE
NA,1.63,NA,NA,NA,NA,NA,NA,NA,NA,h.PNG,h,573dacc5b3a71f00146e7d88,2021-10-19_12h53.18.170,forced_choiceRT,2021.1.2,Linux x86_64,60.0348202,NA,NA,NA,NA,NA,NA,NA,8,Ontime,j,0,2.0334,2,2,10,2,1,NA,NA,NA,NA,NA,2033.3999999999999,201.7,2,0,j,h,1,1,489.65000000000003,f,f,0,memory2,-0.5,-0.5,0.2017,FALSE,FALSE,FALSE,FALSE
NA,0.49,NA,NA,NA,NA,NA,NA,NA,NA,j.PNG,j,573dacc5b3a71f00146e7d88,2021-10-19_12h53.18.170,forced_choiceRT,2021.1.2,Linux x86_64,60.0348202,NA,NA,NA,NA,NA,NA,NA,8,Ontime,j,1,1.9834,2,3,11,3,1,NA,NA,NA,NA,NA,1983.4,746.7,2,1,j,j,1,0,201.7,j,h,1,memory2,-0.5,0.5,0.7467,TRUE,FALSE,TRUE,FALSE
NA,1.58,NA,NA,NA,NA,NA,NA,NA,NA,g.PNG,g,573dacc5b3a71f00146e7d88,2021-10-19_12h53.18.170,forced_choiceRT,2021.1.2,Linux x86_64,60.0348202,NA,NA,NA,NA,NA,NA,NA,8,Ontime,j,0,2.0492,3,1,13,1,1,NA,NA,NA,NA,NA,2049.2,234.5999999999999,2,0,j,g,1,1,350.6,j,j,0,memory2,-0.5,-0.5,0.23459999999999992,TRUE,FALSE,FALSE,FALSE
NA,0.6,NA,NA,NA,NA,NA,NA,NA,NA,j.PNG,j,573dacc5b3a71f00146e7d88,2021-10-19_12h53.18.170,forced_choiceRT,2021.1.2,Linux x86_64,60.0348202,NA,NA,NA,NA,NA,NA,NA,8,Ontime,j,1,2.018,3,3,15,3,1,NA,NA,NA,NA,NA,2017.9999999999998,708.9999999999999,2,1,j,j,0,1,655.9999999999999,g,g,1,memory2,0.5,-0.5,0.7089999999999999,FALSE,FALSE,FALSE,FALSE
NA,1.67,NA,NA,NA,NA,NA,NA,NA,NA,f.PNG,f,573dacc5b3a71f00146e7d88,2021-10-19_12h53.18.170,forced_choiceRT,2021.1.2,Linux x86_64,60.0348202,NA,NA,NA,NA,NA,NA,NA,8,Ontime,j,0,2.07,4,0,16,0,1,NA,NA,NA,NA,NA,2070,199.99999999999994,2,0,j,f,1,1,708.9999999999999,j,j,0,memory2,-0.5,-0.5,0.19999999999999996,TRUE,FALSE,FALSE,FALSE
NA,1.35,NA,NA,NA,NA,NA,NA,NA,NA,j.PNG,j,573dacc5b3a71f00146e7d88,2021-10-19_12h53.18.170,forced_choiceRT,2021.1.2,Linux x86_64,60.0348202,NA,NA,NA,NA,NA,NA,NA,8,Ontime,j,1,1.9488,4,1,17,3,1,NA,NA,NA,NA,NA,1948.8000000000002,299.4,2,1,j,j,1,0,199.99999999999994,j,f,1,memory2,-0.5,0.5,0.2994,TRUE,FALSE,TRUE,FALSE
NA,0.49,NA,NA,NA,NA,NA,NA,NA,NA,g.PNG,g,573dacc5b3a71f00146e7d88,2021-10-19_12h53.18.170,forced_choiceRT,2021.1.2,Linux x86_64,60.0348202,NA,NA,NA,NA,NA,NA,NA,8,Ontime,g,1,1.9823,4,2,18,1,1,NA,NA,NA,NA,NA,1982.3,746.15,2,1,g,g,0,1,299.4,j,j,1,memory2,0.5,-0.5,0.74615,FALSE,FALSE,FALSE,FALSE
NA,0.52,NA,NA,NA,NA,NA,NA,NA,NA,j.PNG,j,573dacc5b3a71f00146e7d88,2021-10-19_12h53.18.170,forced_choiceRT,2021.1.2,Linux x86_64,60.0348202,NA,NA,NA,NA,NA,NA,NA,8,Ontime,j,1,2.0331,4,3,19,3,1,NA,NA,NA,NA,NA,2033.1000000000001,756.5500000000001,2,1,j,j,1,1,746.15,g,g,1,memory2,-0.5,-0.5,0.7565500000000001,FALSE,FALSE,FALSE,FALSE
NA,0.38,NA,NA,NA,NA,NA,NA,NA,NA,h.PNG,h,573dacc5b3a71f00146e7d88,2021-10-19_12h53.18.170,forced_choiceRT,2021.1.2,Linux x86_64,60.0348202,NA,NA,NA,NA,NA,NA,NA,8,Ontime,h,1,2.0389,5,0,20,2,1,NA,NA,NA,NA,NA,2038.8999999999999,829.45,2,1,h,h,1,1,756.5500000000001,j,j,1,memory2,-0.5,-0.5,0.82945,FALSE,FALSE,FALSE,FALSE
NA,0.11,NA,NA,NA,NA,NA,NA,NA,NA,j.PNG,j,573dacc5b3a71f00146e7d88,2021-10-19_12h53.18.170,forced_choiceRT,2021.1.2,Linux x86_64,60.0348202,NA,NA,NA,NA,NA,NA,NA,8,Ontime,j,1,1.9491,5,2,22,3,1,NA,NA,NA,NA,NA,1949.1000000000001,919.55,2,1,j,j,1,1,216.05000000000007,h,h,1,memory2,-0.5,-0.5,0.91955,FALSE,FALSE,FALSE,FALSE
NA,1.39,NA,NA,NA,NA,NA,NA,NA,NA,f.PNG,f,573dacc5b3a71f00146e7d88,2021-10-19_12h53.18.170,forced_choiceRT,2021.1.2,Linux x86_64,60.0348202,NA,NA,NA,NA,NA,NA,NA,8,Ontime,f,1,2.0148,5,3,23,0,1,NA,NA,NA,NA,NA,2014.8000000000002,312.40000000000015,2,1,f,f,1,1,919.55,j,j,1,memory2,-0.5,-0.5,0.3124000000000001,FALSE,FALSE,FALSE,FALSE
NA,0.17,NA,NA,NA,NA,NA,NA,NA,NA,h.PNG,h,573dacc5b3a71f00146e7d88,2021-10-19_12h53.18.170,forced_choiceRT,2021.1.2,Linux x86_64,60.0348202,NA,NA,NA,NA,NA,NA,NA,8,Ontime,h,1,1.967,6,0,24,2,1,NA,NA,NA,NA,NA,1967,898.5000000000001,2,1,h,h,1,1,312.40000000000015,f,f,1,memory2,-0.5,-0.5,0.8985000000000001,FALSE,FALSE,FALSE,FALSE
NA,1.11,NA,NA,NA,NA,NA,NA,NA,NA,g.PNG,g,573dacc5b3a71f00146e7d88,2021-10-19_12h53.18.170,forced_choiceRT,2021.1.2,Linux x86_64,60.0348202,NA,NA,NA,NA,NA,NA,NA,8,Ontime,g,1,1.9544,6,1,25,1,1,NA,NA,NA,NA,NA,1954.3999999999999,422.19999999999993,2,1,g,g,1,1,898.5000000000001,h,h,1,memory2,-0.5,-0.5,0.4221999999999999,FALSE,FALSE,FALSE,FALSE
NA,1.14,NA,NA,NA,NA,NA,NA,NA,NA,h.PNG,h,573dacc5b3a71f00146e7d88,2021-10-19_12h53.18.170,forced_choiceRT,2021.1.2,Linux x86_64,60.0348202,NA,NA,NA,NA,NA,NA,NA,8,Ontime,j,0,2.0346,6,3,27,2,1,NA,NA,NA,NA,NA,2034.6000000000001,447.3000000000001,2,0,j,h,1,1,826.55,f,f,0,memory2,-0.5,-0.5,0.44730000000000014,FALSE,FALSE,FALSE,FALSE
NA,1.09,NA,NA,NA,NA,NA,NA,NA,NA,j.PNG,j,573dacc5b3a71f00146e7d88,2021-10-19_12h53.18.170,forced_choiceRT,2021.1.2,Linux x86_64,60.0348202,NA,NA,NA,NA,NA,NA,NA,8,Ontime,j,1,1.9641,7,0,28,3,1,NA,NA,NA,NA,NA,1964.1,437.04999999999995,2,1,j,j,1,0,447.3000000000001,j,h,1,memory2,-0.5,0.5,0.43704999999999994,TRUE,FALSE,TRUE,FALSE
NA,0.51,NA,NA,NA,NA,NA,NA,NA,NA,g.PNG,g,573dacc5b3a71f00146e7d88,2021-10-19_12h53.18.170,forced_choiceRT,2021.1.2,Linux x86_64,60.0348202,NA,NA,NA,NA,NA,NA,NA,8,Ontime,g,1,2.0023,7,1,29,1,1,NA,NA,NA,NA,NA,2002.3,746.15,2,1,g,g,0,1,437.04999999999995,j,j,1,memory2,0.5,-0.5,0.74615,FALSE,FALSE,FALSE,FALSE
NA,0.85,NA,NA,NA,NA,NA,NA,NA,NA,f.PNG,f,573dacc5b3a71f00146e7d88,2021-10-19_12h53.18.170,forced_choiceRT,2021.1.2,Linux x86_64,60.0348202,NA,NA,NA,NA,NA,NA,NA,8,Ontime,f,1,1.9826,7,3,31,0,1,NA,NA,NA,NA,NA,1982.6,566.3000000000001,2,1,f,f,1,1,327.7500000000001,f,f,1,memory2,-0.5,-0.5,0.5663,TRUE,TRUE,TRUE,FALSE
NA,1.69,NA,NA,NA,NA,NA,NA,NA,NA,f.PNG,f,573dacc5b3a71f00146e7d88,2021-10-19_12h53.18.170,forced_choiceRT,2021.1.2,Linux x86_64,60.0348202,NA,NA,NA,NA,NA,NA,NA,8,Ontime,h,0,2.0172,8,1,33,0,1,NA,NA,NA,NA,NA,2017.1999999999998,163.59999999999997,2,0,h,f,1,0,325.79999999999995,j,h,0,memory2,-0.5,0.5,0.16359999999999997,FALSE,FALSE,FALSE,FALSE
NA,1.1,NA,NA,NA,NA,NA,NA,NA,NA,h.PNG,h,573dacc5b3a71f00146e7d88,2021-10-19_12h53.18.170,forced_choiceRT,2021.1.2,Linux x86_64,60.0348202,NA,NA,NA,NA,NA,NA,NA,8,Ontime,h,1,2.0208,8,2,34,2,1,NA,NA,NA,NA,NA,2020.8,460.3999999999999,2,1,h,h,0,0,163.59999999999997,h,f,1,memory2,0.5,0.5,0.4603999999999999,TRUE,FALSE,TRUE,FALSE
NA,1.6,NA,NA,NA,NA,NA,NA,NA,NA,g.PNG,g,573dacc5b3a71f00146e7d88,2021-10-19_12h53.18.170,forced_choiceRT,2021.1.2,Linux x86_64,60.0348202,NA,NA,NA,NA,NA,NA,NA,8,Ontime,j,0,1.9492,8,3,35,1,1,NA,NA,NA,NA,NA,1949.2,174.59999999999997,2,0,j,g,0,1,460.3999999999999,h,h,0,memory2,0.5,-0.5,0.17459999999999998,FALSE,FALSE,FALSE,FALSE
NA,1.33,NA,NA,NA,NA,NA,NA,NA,NA,f.PNG,f,573dacc5b3a71f00146e7d88,2021-10-19_12h53.18.170,forced_choiceRT,2021.1.2,Linux x86_64,60.0348202,NA,NA,NA,NA,NA,NA,NA,8,Ontime,h,0,1.9826,9,0,36,0,1,NA,NA,NA,NA,NA,1982.6,326.2999999999999,2,0,h,f,1,0,174.59999999999997,j,g,0,memory2,-0.5,0.5,0.3262999999999999,FALSE,FALSE,FALSE,FALSE
NA,1.93,NA,NA,NA,NA,NA,NA,NA,NA,g.PNG,g,573dacc5b3a71f00146e7d88,2021-10-19_12h53.18.170,forced_choiceRT,2021.1.2,Linux x86_64,60.0348202,NA,NA,NA,NA,NA,NA,NA,8,Slow,h,0,2.1,9,1,37,1,1,NA,NA,NA,NA,NA,2100,85.00000000000007,2,0,h,g,0,0,326.2999999999999,h,f,0,memory2,0.5,0.5,0.08500000000000008,TRUE,FALSE,FALSE,FALSE
NA,1.9,NA,NA,NA,NA,NA,NA,NA,NA,g.PNG,g,573dacc5b3a71f00146e7d88,2021-10-19_12h53.18.170,forced_choiceRT,2021.1.2,Linux x86_64,60.0348202,NA,NA,NA,NA,NA,NA,NA,8,Ontime,g,1,2.0793,9,2,38,1,1,NA,NA,NA,NA,NA,2079.2999999999997,89.65,2,1,g,g,0,0,85.00000000000007,h,g,1,memory2,0.5,0.5,0.08965000000000001,FALSE,TRUE,FALSE,TRUE
NA,0.2,NA,NA,NA,NA,NA,NA,NA,NA,g.PNG,g,573dacc5b3a71f00146e7d88,2021-10-19_12h53.18.170,forced_choiceRT,2021.1.2,Linux x86_64,60.0348202,NA,NA,NA,NA,NA,NA,NA,8,Ontime,g,1,1.9829,9,3,39,1,1,NA,NA,NA,NA,NA,1982.9,891.45,2,1,g,g,0,1,89.65,g,g,1,memory2,0.5,-0.5,0.8914500000000001,TRUE,TRUE,TRUE,TRUE
NA,1.74,NA,NA,NA,NA,NA,NA,NA,NA,f.PNG,f,573dacc5b3a71f00146e7d88,2021-10-19_12h53.18.170,forced_choiceRT,2021.1.2,Linux x86_64,60.0348202,NA,NA,NA,NA,NA,NA,NA,9,Ontime,h,0,2.03,0,0,0,0,1,NA,NA,NA,NA,NA,2029.9999999999998,144.99999999999991,2,0,h,f,1,1,891.45,g,g,0,memory2,-0.5,-0.5,0.1449999999999999,FALSE,FALSE,FALSE,FALSE
NA,1.27,NA,NA,NA,NA,NA,NA,NA,NA,f.PNG,f,573dacc5b3a71f00146e7d88,2021-10-19_12h53.18.170,forced_choiceRT,2021.1.2,Linux x86_64,60.0348202,NA,NA,NA,NA,NA,NA,NA,9,Ontime,f,1,1.9823,0,1,1,0,1,NA,NA,NA,NA,NA,1982.3,356.15,2,1,f,f,1,0,144.99999999999991,h,f,1,memory2,-0.5,0.5,0.35614999999999997,FALSE,TRUE,FALSE,FALSE
NA,0.26,NA,NA,NA,NA,NA,NA,NA,NA,h.PNG,h,573dacc5b3a71f00146e7d88,2021-10-19_12h53.18.170,forced_choiceRT,2021.1.2,Linux x86_64,60.0348202,NA,NA,NA,NA,NA,NA,NA,9,Ontime,h,1,1.9492,0,2,2,2,1,NA,NA,NA,NA,NA,1949.2,844.6,2,1,h,h,0,1,356.15,f,f,1,memory2,0.5,-0.5,0.8446,FALSE,FALSE,FALSE,FALSE
NA,0.92,NA,NA,NA,NA,NA,NA,NA,NA,f.PNG,f,573dacc5b3a71f00146e7d88,2021-10-19_12h53.18.170,forced_choiceRT,2021.1.2,Linux x86_64,60.0348202,NA,NA,NA,NA,NA,NA,NA,9,Ontime,f,1,1.9344,1,0,4,0,1,NA,NA,NA,NA,NA,1934.3999999999999,507.1999999999999,2,1,f,f,1,1,277.65,f,f,1,memory2,-0.5,-0.5,0.5071999999999999,TRUE,TRUE,TRUE,FALSE
NA,0.04,NA,NA,NA,NA,NA,NA,NA,NA,j.PNG,j,573dacc5b3a71f00146e7d88,2021-10-19_12h53.18.170,forced_choiceRT,2021.1.2,Linux x86_64,60.0348202,NA,NA,NA,NA,NA,NA,NA,9,Ontime,j,1,1.9319,1,2,6,3,1,NA,NA,NA,NA,NA,1931.8999999999999,945.9499999999999,2,1,j,j,1,1,102.39999999999993,h,h,1,memory2,-0.5,-0.5,0.94595,FALSE,FALSE,FALSE,FALSE
NA,0.69,NA,NA,NA,NA,NA,NA,NA,NA,h.PNG,h,573dacc5b3a71f00146e7d88,2021-10-19_12h53.18.170,forced_choiceRT,2021.1.2,Linux x86_64,60.0348202,NA,NA,NA,NA,NA,NA,NA,9,Ontime,h,1,2.0365,1,3,7,2,1,NA,NA,NA,NA,NA,2036.5000000000002,673.2500000000001,2,1,h,h,1,1,945.9499999999999,j,j,1,memory2,-0.5,-0.5,0.6732500000000001,FALSE,FALSE,FALSE,FALSE
NA,1.08,NA,NA,NA,NA,NA,NA,NA,NA,h.PNG,h,573dacc5b3a71f00146e7d88,2021-10-19_12h53.18.170,forced_choiceRT,2021.1.2,Linux x86_64,60.0348202,NA,NA,NA,NA,NA,NA,NA,9,Ontime,h,1,1.9356,2,0,8,2,1,NA,NA,NA,NA,NA,1935.6,427.79999999999995,2,1,h,h,1,1,673.2500000000001,h,h,1,memory2,-0.5,-0.5,0.42779999999999996,TRUE,TRUE,TRUE,FALSE
NA,0.41,NA,NA,NA,NA,NA,NA,NA,NA,g.PNG,g,573dacc5b3a71f00146e7d88,2021-10-19_12h53.18.170,forced_choiceRT,2021.1.2,Linux x86_64,60.0348202,NA,NA,NA,NA,NA,NA,NA,9,Ontime,g,1,1.97,2,1,9,1,1,NA,NA,NA,NA,NA,1970,780,2,1,g,g,1,1,427.79999999999995,h,h,1,memory2,-0.5,-0.5,0.78,FALSE,FALSE,FALSE,FALSE
NA,0.12,NA,NA,NA,NA,NA,NA,NA,NA,g.PNG,g,573dacc5b3a71f00146e7d88,2021-10-19_12h53.18.170,forced_choiceRT,2021.1.2,Linux x86_64,60.0348202,NA,NA,NA,NA,NA,NA,NA,9,Ontime,g,1,1.9621,2,2,10,1,1,NA,NA,NA,NA,NA,1962.1,921.05,2,1,g,g,1,1,780,g,g,1,memory2,-0.5,-0.5,0.9210499999999999,TRUE,TRUE,TRUE,FALSE
NA,0.16,NA,NA,NA,NA,NA,NA,NA,NA,g.PNG,g,573dacc5b3a71f00146e7d88,2021-10-19_12h53.18.170,forced_choiceRT,2021.1.2,Linux x86_64,60.0348202,NA,NA,NA,NA,NA,NA,NA,9,Ontime,g,1,1.9445,3,0,12,1,1,NA,NA,NA,NA,NA,1944.5,892.25,2,1,g,g,1,0,147.75000000000006,h,f,1,memory2,-0.5,0.5,0.89225,FALSE,FALSE,FALSE,FALSE
NA,1.13,NA,NA,NA,NA,NA,NA,NA,NA,j.PNG,j,573dacc5b3a71f00146e7d88,2021-10-19_12h53.18.170,forced_choiceRT,2021.1.2,Linux x86_64,60.0348202,NA,NA,NA,NA,NA,NA,NA,9,Ontime,j,1,2.0181,3,1,13,3,1,NA,NA,NA,NA,NA,2018.1,444.05000000000007,2,1,j,j,0,1,892.25,g,g,1,memory2,0.5,-0.5,0.44405000000000006,FALSE,FALSE,FALSE,FALSE
NA,0.5,NA,NA,NA,NA,NA,NA,NA,NA,j.PNG,j,573dacc5b3a71f00146e7d88,2021-10-19_12h53.18.170,forced_choiceRT,2021.1.2,Linux x86_64,60.0348202,NA,NA,NA,NA,NA,NA,NA,9,Ontime,j,1,2.0747,3,2,14,3,1,NA,NA,NA,NA,NA,2074.7,787.35,2,1,j,j,1,1,444.05000000000007,j,j,1,memory2,-0.5,-0.5,0.78735,TRUE,TRUE,TRUE,FALSE
NA,1.42,NA,NA,NA,NA,NA,NA,NA,NA,j.PNG,j,573dacc5b3a71f00146e7d88,2021-10-19_12h53.18.170,forced_choiceRT,2021.1.2,Linux x86_64,60.0348202,NA,NA,NA,NA,NA,NA,NA,9,Ontime,j,1,2.0015,3,3,15,3,1,NA,NA,NA,NA,NA,2001.5,290.75000000000006,2,1,j,j,1,1,787.35,j,j,1,memory2,-0.5,-0.5,0.29075000000000006,TRUE,TRUE,TRUE,FALSE
NA,1.07,NA,NA,NA,NA,NA,NA,NA,NA,j.PNG,j,573dacc5b3a71f00146e7d88,2021-10-19_12h53.18.170,forced_choiceRT,2021.1.2,Linux x86_64,60.0348202,NA,NA,NA,NA,NA,NA,NA,9,Ontime,j,1,1.9655,4,0,16,3,1,NA,NA,NA,NA,NA,1965.5,447.75,2,1,j,j,1,1,290.75000000000006,j,j,1,memory2,-0.5,-0.5,0.44775,TRUE,TRUE,TRUE,FALSE
NA,0.35,NA,NA,NA,NA,NA,NA,NA,NA,j.PNG,j,573dacc5b3a71f00146e7d88,2021-10-19_12h53.18.170,forced_choiceRT,2021.1.2,Linux x86_64,60.0348202,NA,NA,NA,NA,NA,NA,NA,9,Ontime,j,1,1.9676,4,1,17,3,1,NA,NA,NA,NA,NA,1967.6,808.8,2,1,j,j,1,1,447.75,j,j,1,memory2,-0.5,-0.5,0.8088,TRUE,TRUE,TRUE,FALSE
NA,1.93,NA,NA,NA,NA,NA,NA,NA,NA,f.PNG,f,573dacc5b3a71f00146e7d88,2021-10-19_12h53.18.170,forced_choiceRT,2021.1.2,Linux x86_64,60.0348202,NA,NA,NA,NA,NA,NA,NA,9,Ontime,h,0,2.0826,5,0,20,0,1,NA,NA,NA,NA,NA,2082.6,76.29999999999993,2,0,h,f,1,1,801.25,f,f,0,memory2,-0.5,-0.5,0.07629999999999992,FALSE,TRUE,TRUE,FALSE
NA,0.77,NA,NA,NA,NA,NA,NA,NA,NA,j.PNG,j,573dacc5b3a71f00146e7d88,2021-10-19_12h53.18.170,forced_choiceRT,2021.1.2,Linux x86_64,60.0348202,NA,NA,NA,NA,NA,NA,NA,9,Ontime,j,1,2.0182,5,1,21,3,1,NA,NA,NA,NA,NA,2018.2000000000003,624.1000000000001,2,1,j,j,1,0,76.29999999999993,h,f,1,memory2,-0.5,0.5,0.6241000000000001,FALSE,FALSE,FALSE,TRUE
NA,1.22,NA,NA,NA,NA,NA,NA,NA,NA,g.PNG,g,573dacc5b3a71f00146e7d88,2021-10-19_12h53.18.170,forced_choiceRT,2021.1.2,Linux x86_64,60.0348202,NA,NA,NA,NA,NA,NA,NA,9,Ontime,g,1,2.0693,5,2,22,1,1,NA,NA,NA,NA,NA,2069.3,424.6500000000001,2,1,g,g,0,1,624.1000000000001,j,j,1,memory2,0.5,-0.5,0.4246500000000001,FALSE,FALSE,FALSE,FALSE
NA,0.13,NA,NA,NA,NA,NA,NA,NA,NA,h.PNG,h,573dacc5b3a71f00146e7d88,2021-10-19_12h53.18.170,forced_choiceRT,2021.1.2,Linux x86_64,60.0348202,NA,NA,NA,NA,NA,NA,NA,9,Ontime,h,1,1.9626,5,3,23,2,1,NA,NA,NA,NA,NA,1962.6,916.2999999999998,2,1,h,h,1,1,424.6500000000001,g,g,1,memory2,-0.5,-0.5,0.9162999999999999,FALSE,FALSE,FALSE,FALSE
NA,0.75,NA,NA,NA,NA,NA,NA,NA,NA,g.PNG,g,573dacc5b3a71f00146e7d88,2021-10-19_12h53.18.170,forced_choiceRT,2021.1.2,Linux x86_64,60.0348202,NA,NA,NA,NA,NA,NA,NA,9,Ontime,g,1,2.0356,6,0,24,1,1,NA,NA,NA,NA,NA,2035.6000000000001,642.8000000000001,2,1,g,g,1,1,916.2999999999998,h,h,1,memory2,-0.5,-0.5,0.6428,FALSE,FALSE,FALSE,FALSE
NA,1.97,NA,NA,NA,NA,NA,NA,NA,NA,g.PNG,g,573dacc5b3a71f00146e7d88,2021-10-19_12h53.18.170,forced_choiceRT,2021.1.2,Linux x86_64,60.0348202,NA,NA,NA,NA,NA,NA,NA,9,Ontime,h,0,2.0158,6,1,25,1,1,NA,NA,NA,NA,NA,2015.8,22.90000000000003,2,0,h,g,1,1,642.8000000000001,g,g,0,memory2,-0.5,-0.5,0.02290000000000003,FALSE,TRUE,TRUE,FALSE
NA,0.12,NA,NA,NA,NA,NA,NA,NA,NA,j.PNG,j,573dacc5b3a71f00146e7d88,2021-10-19_12h53.18.170,forced_choiceRT,2021.1.2,Linux x86_64,60.0348202,NA,NA,NA,NA,NA,NA,NA,9,Ontime,j,1,2.0019,6,2,26,3,1,NA,NA,NA,NA,NA,2001.9,940.9499999999999,2,1,j,j,1,0,22.90000000000003,h,g,1,memory2,-0.5,0.5,0.94095,FALSE,FALSE,FALSE,TRUE
NA,1.77,NA,NA,NA,NA,NA,NA,NA,NA,h.PNG,h,573dacc5b3a71f00146e7d88,2021-10-19_12h53.18.170,forced_choiceRT,2021.1.2,Linux x86_64,60.0348202,NA,NA,NA,NA,NA,NA,NA,9,Ontime,h,1,2.0173,6,3,27,2,1,NA,NA,NA,NA,NA,2017.3000000000002,123.65000000000003,2,1,h,h,0,1,940.9499999999999,j,j,1,memory2,0.5,-0.5,0.12365000000000004,FALSE,FALSE,FALSE,FALSE
NA,0.39,NA,NA,NA,NA,NA,NA,NA,NA,g.PNG,g,573dacc5b3a71f00146e7d88,2021-10-19_12h53.18.170,forced_choiceRT,2021.1.2,Linux x86_64,60.0348202,NA,NA,NA,NA,NA,NA,NA,9,Ontime,g,1,2.0488,7,1,29,1,1,NA,NA,NA,NA,NA,2048.8,829.3999999999999,2,1,g,g,1,1,638.7,f,f,1,memory2,-0.5,-0.5,0.8293999999999999,FALSE,FALSE,FALSE,FALSE
NA,1.61,NA,NA,NA,NA,NA,NA,NA,NA,h.PNG,h,573dacc5b3a71f00146e7d88,2021-10-19_12h53.18.170,forced_choiceRT,2021.1.2,Linux x86_64,60.0348202,NA,NA,NA,NA,NA,NA,NA,9,Ontime,h,1,1.9948,7,3,31,2,1,NA,NA,NA,NA,NA,1994.8,192.3999999999999,2,1,h,h,1,1,908.4999999999999,g,g,1,memory2,-0.5,-0.5,0.1923999999999999,FALSE,FALSE,FALSE,FALSE
NA,1.71,NA,NA,NA,NA,NA,NA,NA,NA,f.PNG,f,573dacc5b3a71f00146e7d88,2021-10-19_12h53.18.170,forced_choiceRT,2021.1.2,Linux x86_64,60.0348202,NA,NA,NA,NA,NA,NA,NA,9,Ontime,h,0,1.9854,8,0,32,0,1,NA,NA,NA,NA,NA,1985.4,137.70000000000005,2,0,h,f,1,1,192.3999999999999,h,h,0,memory2,-0.5,-0.5,0.13770000000000004,TRUE,FALSE,FALSE,FALSE
NA,1.14,NA,NA,NA,NA,NA,NA,NA,NA,f.PNG,f,573dacc5b3a71f00146e7d88,2021-10-19_12h53.18.170,forced_choiceRT,2021.1.2,Linux x86_64,60.0348202,NA,NA,NA,NA,NA,NA,NA,9,Ontime,f,1,2.0127,9,0,36,0,1,NA,NA,NA,NA,NA,2012.7,436.35000000000014,2,1,f,f,0,0,893.05,f,g,1,memory2,0.5,0.5,0.4363500000000001,TRUE,FALSE,TRUE,FALSE
NA,1.21,NA,NA,NA,NA,NA,NA,NA,NA,h.PNG,h,573dacc5b3a71f00146e7d88,2021-10-19_12h53.18.170,forced_choiceRT,2021.1.2,Linux x86_64,60.0348202,NA,NA,NA,NA,NA,NA,NA,9,Ontime,h,1,2.0166,9,1,37,2,1,NA,NA,NA,NA,NA,2016.6,403.3,2,1,h,h,0,1,436.35000000000014,f,f,1,memory2,0.5,-0.5,0.4033,FALSE,FALSE,FALSE,FALSE
NA,1.77,NA,NA,NA,NA,NA,NA,NA,NA,j.PNG,j,573dacc5b3a71f00146e7d88,2021-10-19_12h53.18.170,forced_choiceRT,2021.1.2,Linux x86_64,60.0348202,NA,NA,NA,NA,NA,NA,NA,9,Ontime,h,0,2.0016,9,2,38,3,1,NA,NA,NA,NA,NA,2001.6,115.7999999999999,2,0,h,j,1,1,403.3,h,h,0,memory2,-0.5,-0.5,0.1157999999999999,TRUE,FALSE,FALSE,FALSE
NA,1.24,NA,NA,NA,NA,NA,NA,NA,NA,h.PNG,h,573dacc5b3a71f00146e7d88,2021-10-19_12h53.18.170,forced_choiceRT,2021.1.2,Linux x86_64,60.0348202,NA,NA,NA,NA,NA,NA,NA,9,Ontime,h,1,1.984,9,3,39,2,1,NA,NA,NA,NA,NA,1984,372,2,1,h,h,1,0,115.7999999999999,h,j,1,memory2,-0.5,0.5,0.372,TRUE,FALSE,TRUE,FALSE
NA,1.04,NA,NA,NA,NA,NA,NA,NA,NA,j.PNG,j,573dacc5b3a71f00146e7d88,2021-10-19_12h53.18.170,forced_choiceRT,2021.1.2,Linux x86_64,60.0348202,NA,NA,NA,NA,NA,NA,NA,10,Ontime,j,1,2.0162,0,0,0,3,1,NA,NA,NA,NA,NA,2016.2,488.09999999999997,2,1,j,j,0,1,372,h,h,1,memory2,0.5,-0.5,0.4881,FALSE,FALSE,FALSE,FALSE
NA,0.77,NA,NA,NA,NA,NA,NA,NA,NA,j.PNG,j,573dacc5b3a71f00146e7d88,2021-10-19_12h53.18.170,forced_choiceRT,2021.1.2,Linux x86_64,60.0348202,NA,NA,NA,NA,NA,NA,NA,10,Ontime,j,1,2.0026,0,1,1,3,1,NA,NA,NA,NA,NA,2002.6000000000001,616.3000000000001,2,1,j,j,1,1,488.09999999999997,j,j,1,memory2,-0.5,-0.5,0.6163000000000001,TRUE,TRUE,TRUE,FALSE
NA,1.66,NA,NA,NA,NA,NA,NA,NA,NA,h.PNG,h,573dacc5b3a71f00146e7d88,2021-10-19_12h53.18.170,forced_choiceRT,2021.1.2,Linux x86_64,60.0348202,NA,NA,NA,NA,NA,NA,NA,10,Ontime,h,1,1.9651,0,2,2,2,1,NA,NA,NA,NA,NA,1965.1000000000001,152.55000000000007,2,1,h,h,1,1,616.3000000000001,j,j,1,memory2,-0.5,-0.5,0.15255000000000007,FALSE,FALSE,FALSE,FALSE
NA,0.05,NA,NA,NA,NA,NA,NA,NA,NA,g.PNG,g,573dacc5b3a71f00146e7d88,2021-10-19_12h53.18.170,forced_choiceRT,2021.1.2,Linux x86_64,60.0348202,NA,NA,NA,NA,NA,NA,NA,10,Ontime,g,1,2.0001,0,3,3,1,1,NA,NA,NA,NA,NA,2000.1000000000001,975.0500000000001,2,1,g,g,1,1,152.55000000000007,h,h,1,memory2,-0.5,-0.5,0.9750500000000001,FALSE,FALSE,FALSE,FALSE
NA,1.96,NA,NA,NA,NA,NA,NA,NA,NA,f.PNG,f,573dacc5b3a71f00146e7d88,2021-10-19_12h53.18.170,forced_choiceRT,2021.1.2,Linux x86_64,60.0348202,NA,NA,NA,NA,NA,NA,NA,10,Ontime,h,0,2.0058,1,0,4,0,1,NA,NA,NA,NA,NA,2005.7999999999997,22.89999999999992,2,0,h,f,1,1,975.0500000000001,g,g,0,memory2,-0.5,-0.5,0.02289999999999992,FALSE,FALSE,FALSE,FALSE
NA,0.2,NA,NA,NA,NA,NA,NA,NA,NA,g.PNG,g,573dacc5b3a71f00146e7d88,2021-10-19_12h53.18.170,forced_choiceRT,2021.1.2,Linux x86_64,60.0348202,NA,NA,NA,NA,NA,NA,NA,10,Ontime,g,1,2,1,1,5,1,1,NA,NA,NA,NA,NA,2000,900,2,1,g,g,1,0,22.89999999999992,h,f,1,memory2,-0.5,0.5,0.9,FALSE,FALSE,FALSE,TRUE
NA,1.28,NA,NA,NA,NA,NA,NA,NA,NA,g.PNG,g,573dacc5b3a71f00146e7d88,2021-10-19_12h53.18.170,forced_choiceRT,2021.1.2,Linux x86_64,60.0348202,NA,NA,NA,NA,NA,NA,NA,10,Ontime,g,1,1.9167,1,2,6,1,1,NA,NA,NA,NA,NA,1916.7,318.35,2,1,g,g,0,1,900,g,g,1,memory2,0.5,-0.5,0.31835,TRUE,TRUE,TRUE,FALSE
NA,0.15,NA,NA,NA,NA,NA,NA,NA,NA,j.PNG,j,573dacc5b3a71f00146e7d88,2021-10-19_12h53.18.170,forced_choiceRT,2021.1.2,Linux x86_64,60.0348202,NA,NA,NA,NA,NA,NA,NA,10,Ontime,j,1,2.001,1,3,7,3,1,NA,NA,NA,NA,NA,2001,925.5,2,1,j,j,1,1,318.35,g,g,1,memory2,-0.5,-0.5,0.9255,FALSE,FALSE,FALSE,FALSE
NA,1.22,NA,NA,NA,NA,NA,NA,NA,NA,h.PNG,h,573dacc5b3a71f00146e7d88,2021-10-19_12h53.18.170,forced_choiceRT,2021.1.2,Linux x86_64,60.0348202,NA,NA,NA,NA,NA,NA,NA,10,Ontime,h,1,1.9068,2,1,9,2,1,NA,NA,NA,NA,NA,1906.8,343.40000000000003,2,1,h,h,1,0,256.55000000000007,h,j,1,memory2,-0.5,0.5,0.34340000000000004,TRUE,FALSE,TRUE,FALSE
NA,1.46,NA,NA,NA,NA,NA,NA,NA,NA,f.PNG,f,573dacc5b3a71f00146e7d88,2021-10-19_12h53.18.170,forced_choiceRT,2021.1.2,Linux x86_64,60.0348202,NA,NA,NA,NA,NA,NA,NA,10,Ontime,h,0,1.9996,2,2,10,0,1,NA,NA,NA,NA,NA,1999.6000000000001,269.80000000000007,2,0,h,f,0,1,343.40000000000003,h,h,0,memory2,0.5,-0.5,0.2698000000000001,TRUE,FALSE,FALSE,FALSE
NA,1.34,NA,NA,NA,NA,NA,NA,NA,NA,h.PNG,h,573dacc5b3a71f00146e7d88,2021-10-19_12h53.18.170,forced_choiceRT,2021.1.2,Linux x86_64,60.0348202,NA,NA,NA,NA,NA,NA,NA,10,Ontime,h,1,1.9196,2,3,11,2,1,NA,NA,NA,NA,NA,1919.6,289.79999999999995,2,1,h,h,1,0,269.80000000000007,h,f,1,memory2,-0.5,0.5,0.28979999999999995,TRUE,FALSE,TRUE,FALSE
NA,0.06,NA,NA,NA,NA,NA,NA,NA,NA,j.PNG,j,573dacc5b3a71f00146e7d88,2021-10-19_12h53.18.170,forced_choiceRT,2021.1.2,Linux x86_64,60.0348202,NA,NA,NA,NA,NA,NA,NA,10,Ontime,j,1,2.0325,3,1,13,3,1,NA,NA,NA,NA,NA,2032.5000000000002,986.2500000000001,2,1,j,j,1,1,644.7499999999999,f,f,1,memory2,-0.5,-0.5,0.9862500000000001,FALSE,FALSE,FALSE,FALSE
NA,1,NA,NA,NA,NA,NA,NA,NA,NA,j.PNG,j,573dacc5b3a71f00146e7d88,2021-10-19_12h53.18.170,forced_choiceRT,2021.1.2,Linux x86_64,60.0348202,NA,NA,NA,NA,NA,NA,NA,10,Ontime,j,1,2.031,3,2,14,3,1,NA,NA,NA,NA,NA,2031.0000000000002,515.5000000000001,2,1,j,j,1,1,986.2500000000001,j,j,1,memory2,-0.5,-0.5,0.5155000000000001,TRUE,TRUE,TRUE,FALSE
NA,1.19,NA,NA,NA,NA,NA,NA,NA,NA,h.PNG,h,573dacc5b3a71f00146e7d88,2021-10-19_12h53.18.170,forced_choiceRT,2021.1.2,Linux x86_64,60.0348202,NA,NA,NA,NA,NA,NA,NA,10,Ontime,h,1,2.0987,3,3,15,2,1,NA,NA,NA,NA,NA,2098.7,454.35,2,1,h,h,1,1,515.5000000000001,j,j,1,memory2,-0.5,-0.5,0.45435000000000003,FALSE,FALSE,FALSE,FALSE
NA,0.58,NA,NA,NA,NA,NA,NA,NA,NA,h.PNG,h,573dacc5b3a71f00146e7d88,2021-10-19_12h53.18.170,forced_choiceRT,2021.1.2,Linux x86_64,60.0348202,NA,NA,NA,NA,NA,NA,NA,10,Ontime,h,1,1.9379,4,0,16,2,1,NA,NA,NA,NA,NA,1937.8999999999999,678.9499999999999,2,1,h,h,1,1,454.35,h,h,1,memory2,-0.5,-0.5,0.6789499999999999,TRUE,TRUE,TRUE,FALSE
NA,1.13,NA,NA,NA,NA,NA,NA,NA,NA,f.PNG,f,573dacc5b3a71f00146e7d88,2021-10-19_12h53.18.170,forced_choiceRT,2021.1.2,Linux x86_64,60.0348202,NA,NA,NA,NA,NA,NA,NA,10,Ontime,f,1,1.9216,4,1,17,0,1,NA,NA,NA,NA,NA,1921.6,395.80000000000007,2,1,f,f,1,1,678.9499999999999,h,h,1,memory2,-0.5,-0.5,0.39580000000000004,FALSE,FALSE,FALSE,FALSE
NA,0.77,NA,NA,NA,NA,NA,NA,NA,NA,g.PNG,g,573dacc5b3a71f00146e7d88,2021-10-19_12h53.18.170,forced_choiceRT,2021.1.2,Linux x86_64,60.0348202,NA,NA,NA,NA,NA,NA,NA,10,Ontime,g,1,2.0316,4,2,18,1,1,NA,NA,NA,NA,NA,2031.6000000000001,630.8000000000001,2,1,g,g,1,1,395.80000000000007,f,f,1,memory2,-0.5,-0.5,0.6308,FALSE,FALSE,FALSE,FALSE
NA,1.46,NA,NA,NA,NA,NA,NA,NA,NA,g.PNG,g,573dacc5b3a71f00146e7d88,2021-10-19_12h53.18.170,forced_choiceRT,2021.1.2,Linux x86_64,60.0348202,NA,NA,NA,NA,NA,NA,NA,10,Ontime,h,0,1.9392,4,3,19,1,1,NA,NA,NA,NA,NA,1939.2,239.60000000000002,2,0,h,g,1,1,630.8000000000001,g,g,0,memory2,-0.5,-0.5,0.23960000000000004,FALSE,TRUE,TRUE,FALSE
NA,1.48,NA,NA,NA,NA,NA,NA,NA,NA,h.PNG,h,573dacc5b3a71f00146e7d88,2021-10-19_12h53.18.170,forced_choiceRT,2021.1.2,Linux x86_64,60.0348202,NA,NA,NA,NA,NA,NA,NA,10,Ontime,h,1,2.0165,5,0,20,2,1,NA,NA,NA,NA,NA,2016.5000000000002,268.2500000000001,2,1,h,h,1,0,239.60000000000002,h,g,1,memory2,-0.5,0.5,0.2682500000000001,TRUE,FALSE,TRUE,FALSE
NA,0.55,NA,NA,NA,NA,NA,NA,NA,NA,h.PNG,h,573dacc5b3a71f00146e7d88,2021-10-19_12h53.18.170,forced_choiceRT,2021.1.2,Linux x86_64,60.0348202,NA,NA,NA,NA,NA,NA,NA,10,Ontime,h,1,1.983,5,1,21,2,1,NA,NA,NA,NA,NA,1983,716.5,2,1,h,h,0,1,268.2500000000001,h,h,1,memory2,0.5,-0.5,0.7165,TRUE,TRUE,TRUE,FALSE
NA,0.97,NA,NA,NA,NA,NA,NA,NA,NA,h.PNG,h,573dacc5b3a71f00146e7d88,2021-10-19_12h53.18.170,forced_choiceRT,2021.1.2,Linux x86_64,60.0348202,NA,NA,NA,NA,NA,NA,NA,10,Ontime,h,1,1.9992,5,2,22,2,1,NA,NA,NA,NA,NA,1999.2,514.6,2,1,h,h,1,1,716.5,h,h,1,memory2,-0.5,-0.5,0.5146000000000001,TRUE,TRUE,TRUE,FALSE
NA,0.11,NA,NA,NA,NA,NA,NA,NA,NA,g.PNG,g,573dacc5b3a71f00146e7d88,2021-10-19_12h53.18.170,forced_choiceRT,2021.1.2,Linux x86_64,60.0348202,NA,NA,NA,NA,NA,NA,NA,10,Ontime,g,1,1.988,5,3,23,1,1,NA,NA,NA,NA,NA,1988,939,2,1,g,g,1,1,514.6,h,h,1,memory2,-0.5,-0.5,0.939,FALSE,FALSE,FALSE,FALSE
NA,1.66,NA,NA,NA,NA,NA,NA,NA,NA,g.PNG,g,573dacc5b3a71f00146e7d88,2021-10-19_12h53.18.170,forced_choiceRT,2021.1.2,Linux x86_64,60.0348202,NA,NA,NA,NA,NA,NA,NA,10,Ontime,h,0,1.9648,6,0,24,1,1,NA,NA,NA,NA,NA,1964.8000000000002,152.4000000000001,2,0,h,g,1,1,939,g,g,0,memory2,-0.5,-0.5,0.1524000000000001,FALSE,TRUE,TRUE,FALSE
NA,1.37,NA,NA,NA,NA,NA,NA,NA,NA,h.PNG,h,573dacc5b3a71f00146e7d88,2021-10-19_12h53.18.170,forced_choiceRT,2021.1.2,Linux x86_64,60.0348202,NA,NA,NA,NA,NA,NA,NA,10,Ontime,h,1,2.0043,6,1,25,2,1,NA,NA,NA,NA,NA,2004.3000000000002,317.15000000000003,2,1,h,h,1,0,152.4000000000001,h,g,1,memory2,-0.5,0.5,0.31715000000000004,TRUE,FALSE,TRUE,FALSE
NA,0.17,NA,NA,NA,NA,NA,NA,NA,NA,f.PNG,f,573dacc5b3a71f00146e7d88,2021-10-19_12h53.18.170,forced_choiceRT,2021.1.2,Linux x86_64,60.0348202,NA,NA,NA,NA,NA,NA,NA,10,Ontime,f,1,2.0467,6,3,27,0,1,NA,NA,NA,NA,NA,2046.7,938.35,2,1,f,f,1,0,714.0999999999999,g,f,1,memory2,-0.5,0.5,0.93835,FALSE,TRUE,FALSE,FALSE
NA,0.77,NA,NA,NA,NA,NA,NA,NA,NA,j.PNG,j,573dacc5b3a71f00146e7d88,2021-10-19_12h53.18.170,forced_choiceRT,2021.1.2,Linux x86_64,60.0348202,NA,NA,NA,NA,NA,NA,NA,10,Ontime,j,1,1.9977,7,1,29,3,1,NA,NA,NA,NA,NA,1997.7,613.85,2,1,j,j,1,0,238.85,h,j,1,memory2,-0.5,0.5,0.61385,FALSE,TRUE,FALSE,FALSE
NA,1.96,NA,NA,NA,NA,NA,NA,NA,NA,f.PNG,f,573dacc5b3a71f00146e7d88,2021-10-19_12h53.18.170,forced_choiceRT,2021.1.2,Linux x86_64,60.0348202,NA,NA,NA,NA,NA,NA,NA,10,Ontime,h,0,2.0508,7,3,31,0,1,NA,NA,NA,NA,NA,2050.8,45.400000000000105,2,0,h,f,1,1,354.45000000000005,g,g,0,memory2,-0.5,-0.5,0.04540000000000011,FALSE,FALSE,FALSE,FALSE
NA,0.94,NA,NA,NA,NA,NA,NA,NA,NA,g.PNG,g,573dacc5b3a71f00146e7d88,2021-10-19_12h53.18.170,forced_choiceRT,2021.1.2,Linux x86_64,60.0348202,NA,NA,NA,NA,NA,NA,NA,10,Ontime,g,1,2.0168,8,0,32,1,1,NA,NA,NA,NA,NA,2016.8,538.4,2,1,g,g,1,0,45.400000000000105,h,f,1,memory2,-0.5,0.5,0.5384,FALSE,FALSE,FALSE,TRUE
NA,0.36,NA,NA,NA,NA,NA,NA,NA,NA,h.PNG,h,573dacc5b3a71f00146e7d88,2021-10-19_12h53.18.170,forced_choiceRT,2021.1.2,Linux x86_64,60.0348202,NA,NA,NA,NA,NA,NA,NA,10,Ontime,h,1,1.9509,8,1,33,2,1,NA,NA,NA,NA,NA,1950.9,795.45,2,1,h,h,0,1,538.4,g,g,1,memory2,0.5,-0.5,0.79545,FALSE,FALSE,FALSE,FALSE
NA,1.38,NA,NA,NA,NA,NA,NA,NA,NA,f.PNG,f,573dacc5b3a71f00146e7d88,2021-10-19_12h53.18.170,forced_choiceRT,2021.1.2,Linux x86_64,60.0348202,NA,NA,NA,NA,NA,NA,NA,10,Ontime,f,1,1.9872,9,0,36,0,1,NA,NA,NA,NA,NA,1987.2,303.6000000000001,2,1,f,f,1,0,270.25,h,g,1,memory2,-0.5,0.5,0.3036000000000001,FALSE,FALSE,FALSE,FALSE
NA,1.22,NA,NA,NA,NA,NA,NA,NA,NA,f.PNG,f,573dacc5b3a71f00146e7d88,2021-10-19_12h53.18.170,forced_choiceRT,2021.1.2,Linux x86_64,60.0348202,NA,NA,NA,NA,NA,NA,NA,10,Ontime,f,1,1.9332,9,1,37,0,1,NA,NA,NA,NA,NA,1933.2,356.6,2,1,f,f,0,1,303.6000000000001,f,f,1,memory2,0.5,-0.5,0.35660000000000003,TRUE,TRUE,TRUE,FALSE
NA,0.05,NA,NA,NA,NA,NA,NA,NA,NA,j.PNG,j,573dacc5b3a71f00146e7d88,2021-10-19_12h53.18.170,forced_choiceRT,2021.1.2,Linux x86_64,60.0348202,NA,NA,NA,NA,NA,NA,NA,10,Ontime,j,1,2.0494,9,2,38,3,1,NA,NA,NA,NA,NA,2049.4,999.6999999999999,2,1,j,j,1,1,356.6,f,f,1,memory2,-0.5,-0.5,0.9996999999999999,FALSE,FALSE,FALSE,FALSE
NA,1.82,NA,NA,NA,NA,NA,NA,NA,NA,f.PNG,f,5a8352feae9a0b0001a9da8f,2021-10-19_14h45.39.436,forced_choiceRT,2021.1.2,Win32,59.82292414,NA,NA,NA,NA,NA,NA,NA,1,Ontime,g,0,2.0631,1,1,5,0,1,NA,NA,NA,NA,NA,2063.1,121.54999999999994,2,0,g,f,1,1,711.05,g,g,0,memory2,-0.5,-0.5,0.12154999999999994,TRUE,FALSE,FALSE,FALSE
NA,1.69,NA,NA,NA,NA,NA,NA,NA,NA,j.PNG,j,5a8352feae9a0b0001a9da8f,2021-10-19_14h45.39.436,forced_choiceRT,2021.1.2,Win32,59.82292414,NA,NA,NA,NA,NA,NA,NA,1,Ontime,j,1,2.0582,1,3,7,3,1,NA,NA,NA,NA,NA,2058.2,184.09999999999994,2,1,j,j,0,0,777.5000000000001,j,h,1,memory2,0.5,0.5,0.18409999999999993,TRUE,FALSE,TRUE,FALSE
NA,1.77,NA,NA,NA,NA,NA,NA,NA,NA,f.PNG,f,5a8352feae9a0b0001a9da8f,2021-10-19_14h45.39.436,forced_choiceRT,2021.1.2,Win32,59.82292414,NA,NA,NA,NA,NA,NA,NA,1,Ontime,j,0,2.014,2,0,8,0,1,NA,NA,NA,NA,NA,2013.9999999999998,121.99999999999989,2,0,j,f,0,1,184.09999999999994,j,j,0,memory2,0.5,-0.5,0.12199999999999989,TRUE,FALSE,FALSE,FALSE
NA,1.69,NA,NA,NA,NA,NA,NA,NA,NA,h.PNG,h,5a8352feae9a0b0001a9da8f,2021-10-19_14h45.39.436,forced_choiceRT,2021.1.2,Win32,59.82292414,NA,NA,NA,NA,NA,NA,NA,1,Ontime,g,0,1.9738,2,3,11,2,1,NA,NA,NA,NA,NA,1973.8,141.90000000000003,2,0,g,h,1,0,96.00000000000009,j,f,0,memory2,-0.5,0.5,0.14190000000000003,FALSE,FALSE,FALSE,TRUE
NA,1.95,NA,NA,NA,NA,NA,NA,NA,NA,h.PNG,h,5a8352feae9a0b0001a9da8f,2021-10-19_14h45.39.436,forced_choiceRT,2021.1.2,Win32,59.82292414,NA,NA,NA,NA,NA,NA,NA,1,Ontime,h,1,2.0198,3,1,13,2,1,NA,NA,NA,NA,NA,2019.8,34.90000000000004,2,1,h,h,0,1,340.2,h,h,1,memory2,0.5,-0.5,0.03490000000000004,TRUE,TRUE,TRUE,FALSE
NA,1.87,NA,NA,NA,NA,NA,NA,NA,NA,j.PNG,j,5a8352feae9a0b0001a9da8f,2021-10-19_14h45.39.436,forced_choiceRT,2021.1.2,Win32,59.82292414,NA,NA,NA,NA,NA,NA,NA,1,Ontime,h,0,2.0243,3,2,14,3,1,NA,NA,NA,NA,NA,2024.3000000000002,77.15000000000005,2,0,h,j,1,1,34.90000000000004,h,h,0,memory2,-0.5,-0.5,0.07715000000000005,TRUE,FALSE,FALSE,TRUE
NA,1.99,NA,NA,NA,NA,NA,NA,NA,NA,g.PNG,g,5a8352feae9a0b0001a9da8f,2021-10-19_14h45.39.436,forced_choiceRT,2021.1.2,Win32,59.82292414,NA,NA,NA,NA,NA,NA,NA,1,Ontime,j,0,2.0135,4,0,16,1,1,NA,NA,NA,NA,NA,2013.5,11.750000000000039,2,0,j,g,0,1,251.45000000000002,j,j,0,memory2,0.5,-0.5,0.01175000000000004,TRUE,FALSE,FALSE,FALSE
NA,0.84,NA,NA,NA,NA,NA,NA,NA,NA,j.PNG,j,5a8352feae9a0b0001a9da8f,2021-10-19_14h45.39.436,forced_choiceRT,2021.1.2,Win32,59.82292414,NA,NA,NA,NA,NA,NA,NA,1,Ontime,j,1,2.0185,4,3,19,3,1,NA,NA,NA,NA,NA,2018.5,589.25,2,1,j,j,0,0,-153.15,j,f,1,memory2,0.5,0.5,0.58925,TRUE,FALSE,TRUE,TRUE
NA,0.99,NA,NA,NA,NA,NA,NA,NA,NA,f.PNG,f,5a8352feae9a0b0001a9da8f,2021-10-19_14h45.39.436,forced_choiceRT,2021.1.2,Win32,59.82292414,NA,NA,NA,NA,NA,NA,NA,1,Ontime,f,1,1.9517,5,2,22,0,1,NA,NA,NA,NA,NA,1951.7,480.85,2,1,f,f,0,0,-12.44999999999996,j,h,1,memory2,0.5,0.5,0.48085,FALSE,FALSE,FALSE,TRUE
NA,0.4,NA,NA,NA,NA,NA,NA,NA,NA,h.PNG,h,5a8352feae9a0b0001a9da8f,2021-10-19_14h45.39.436,forced_choiceRT,2021.1.2,Win32,59.82292414,NA,NA,NA,NA,NA,NA,NA,1,Ontime,h,1,1.9832,6,1,25,2,1,NA,NA,NA,NA,NA,1983.2,791.6000000000001,2,1,h,h,1,1,361.2,f,f,1,memory2,-0.5,-0.5,0.7916000000000001,FALSE,FALSE,FALSE,FALSE
NA,1.25,NA,NA,NA,NA,NA,NA,NA,NA,h.PNG,h,5a8352feae9a0b0001a9da8f,2021-10-19_14h45.39.436,forced_choiceRT,2021.1.2,Win32,59.82292414,NA,NA,NA,NA,NA,NA,NA,1,Ontime,h,1,1.9249,6,3,27,2,1,NA,NA,NA,NA,NA,1924.9,337.45000000000005,2,1,h,h,1,0,177.1999999999999,h,g,1,memory2,-0.5,0.5,0.33745000000000003,TRUE,FALSE,TRUE,FALSE
NA,1.08,NA,NA,NA,NA,NA,NA,NA,NA,h.PNG,h,5a8352feae9a0b0001a9da8f,2021-10-19_14h45.39.436,forced_choiceRT,2021.1.2,Win32,59.82292414,NA,NA,NA,NA,NA,NA,NA,1,Ontime,h,1,1.9246,7,0,28,2,1,NA,NA,NA,NA,NA,1924.6000000000001,422.3,2,1,h,h,0,1,337.45000000000005,h,h,1,memory2,0.5,-0.5,0.4223,TRUE,TRUE,TRUE,FALSE
NA,0.34,NA,NA,NA,NA,NA,NA,NA,NA,h.PNG,h,5a8352feae9a0b0001a9da8f,2021-10-19_14h45.39.436,forced_choiceRT,2021.1.2,Win32,59.82292414,NA,NA,NA,NA,NA,NA,NA,1,Ontime,h,1,2.0493,8,2,34,2,1,NA,NA,NA,NA,NA,2049.3,854.65,2,1,h,h,1,1,722.3,g,g,1,memory2,-0.5,-0.5,0.85465,FALSE,FALSE,FALSE,FALSE
NA,1.16,NA,NA,NA,NA,NA,NA,NA,NA,g.PNG,g,5a8352feae9a0b0001a9da8f,2021-10-19_14h45.39.436,forced_choiceRT,2021.1.2,Win32,59.82292414,NA,NA,NA,NA,NA,NA,NA,1,Ontime,j,0,1.9839,9,0,36,1,1,NA,NA,NA,NA,NA,1983.9,411.95000000000005,2,0,j,g,1,1,425.3,j,j,0,memory2,-0.5,-0.5,0.41195000000000004,TRUE,FALSE,FALSE,FALSE
NA,0.78,NA,NA,NA,NA,NA,NA,NA,NA,f.PNG,f,5a8352feae9a0b0001a9da8f,2021-10-19_14h45.39.436,forced_choiceRT,2021.1.2,Win32,59.82292414,NA,NA,NA,NA,NA,NA,NA,1,Ontime,f,1,1.9919,9,2,38,0,1,NA,NA,NA,NA,NA,1991.9,605.95,2,1,f,f,0,1,422.6500000000001,j,j,1,memory2,0.5,-0.5,0.6059500000000001,FALSE,FALSE,FALSE,FALSE
NA,1.05,NA,NA,NA,NA,NA,NA,NA,NA,g.PNG,g,5a8352feae9a0b0001a9da8f,2021-10-19_14h45.39.436,forced_choiceRT,2021.1.2,Win32,59.82292414,NA,NA,NA,NA,NA,NA,NA,2,Ontime,f,0,1.9354,0,1,1,1,1,NA,NA,NA,NA,NA,1935.4,442.7,2,0,f,g,1,1,477.3500000000001,j,j,0,memory2,-0.5,-0.5,0.4427,FALSE,FALSE,FALSE,FALSE
NA,0.9,NA,NA,NA,NA,NA,NA,NA,NA,h.PNG,h,5a8352feae9a0b0001a9da8f,2021-10-19_14h45.39.436,forced_choiceRT,2021.1.2,Win32,59.82292414,NA,NA,NA,NA,NA,NA,NA,2,Fast,j,0,1.9,1,0,4,2,1,NA,NA,NA,NA,NA,1900,499.99999999999994,2,0,j,h,1,1,469.95000000000005,f,f,0,memory2,-0.5,-0.5,0.49999999999999994,FALSE,FALSE,FALSE,FALSE
NA,0.29,NA,NA,NA,NA,NA,NA,NA,NA,g.PNG,g,5a8352feae9a0b0001a9da8f,2021-10-19_14h45.39.436,forced_choiceRT,2021.1.2,Win32,59.82292414,NA,NA,NA,NA,NA,NA,NA,2,Ontime,g,1,1.9623,1,1,5,1,1,NA,NA,NA,NA,NA,1962.3,836.15,2,1,g,g,1,0,499.99999999999994,j,h,1,memory2,-0.5,0.5,0.83615,FALSE,FALSE,FALSE,FALSE
NA,1.46,NA,NA,NA,NA,NA,NA,NA,NA,j.PNG,j,5a8352feae9a0b0001a9da8f,2021-10-19_14h45.39.436,forced_choiceRT,2021.1.2,Win32,59.82292414,NA,NA,NA,NA,NA,NA,NA,2,Ontime,j,1,2.0639,2,3,11,3,1,NA,NA,NA,NA,NA,2063.8999999999996,301.94999999999993,2,1,j,j,1,1,724.5500000000001,f,f,1,memory2,-0.5,-0.5,0.30194999999999994,FALSE,FALSE,FALSE,FALSE
NA,1.49,NA,NA,NA,NA,NA,NA,NA,NA,h.PNG,h,5a8352feae9a0b0001a9da8f,2021-10-19_14h45.39.436,forced_choiceRT,2021.1.2,Win32,59.82292414,NA,NA,NA,NA,NA,NA,NA,2,Ontime,j,0,2.0831,3,1,13,2,1,NA,NA,NA,NA,NA,2083.1,296.54999999999995,2,0,j,h,1,0,287.00000000000006,g,f,0,memory2,-0.5,0.5,0.29655,FALSE,FALSE,FALSE,FALSE
