IP_Addresss,target_onset,trial_resp_sp.keys,trial_resp_sp.corr,trial_resp_sp.rt,trials_train_loop.thisRepN,trials_train_loop.thisTrialN,trials_train_loop.thisN,trials_train_loop.thisIndex,trials_train_loop.ran,pic,correct_key,participant,date,expName,psychopyVersion,OS,frameRate,trial_resp_timing.keys,trial_resp_timing.rt,trials_train_timing.thisRepN,trials_train_timing.thisTrialN,trials_train_timing.thisN,trials_train_timing.thisIndex,trials_train_timing.ran,block_id,ontime,forcedRT_resp.keys,forcedRT_resp.corr,forcedRT_resp.rt,trials.thisRepN,trials.thisTrialN,trials.thisN,trials.thisIndex,trials.ran,blocks.thisRepN,blocks.thisTrialN,blocks.thisN,blocks.thisIndex,blocks.ran,RT,PT,PT_scale,accuracy,key,stim,acc00,acc0,time0,key0,stim0,y,exp,err00,err0,time,key_rep,stim_rep,key_stim_rep,time_rep
NA,0.1,NA,NA,NA,NA,NA,NA,NA,NA,j.PNG,j,55e49dccc70c7a000d2a57e5,2021-09-08_17h52.58.332,forced_choiceRT,2021.1.2,Win32,60.90875868,NA,NA,NA,NA,NA,NA,NA,1,Ontime,j,1,1.9896,0,2,2,3,1,NA,NA,NA,NA,NA,1989.6000000000001,944.8,2,1,j,j,0,0,66.69999999999999,h,f,1,memory,0.5,0.5,0.9448,FALSE,FALSE,FALSE,TRUE
NA,1.17,NA,NA,NA,NA,NA,NA,NA,NA,f.PNG,f,55e49dccc70c7a000d2a57e5,2021-09-08_17h52.58.332,forced_choiceRT,2021.1.2,Win32,60.90875868,NA,NA,NA,NA,NA,NA,NA,1,Ontime,f,1,1.982,0,3,3,0,1,NA,NA,NA,NA,NA,1982,406,2,1,f,f,0,1,944.8,j,j,1,memory,0.5,-0.5,0.406,FALSE,FALSE,FALSE,FALSE
NA,1.34,NA,NA,NA,NA,NA,NA,NA,NA,h.PNG,h,55e49dccc70c7a000d2a57e5,2021-09-08_17h52.58.332,forced_choiceRT,2021.1.2,Win32,60.90875868,NA,NA,NA,NA,NA,NA,NA,1,Ontime,h,1,2.0078,1,1,5,2,1,NA,NA,NA,NA,NA,2007.8,333.9,2,1,h,h,1,0,197.7000000000001,h,j,1,memory,-0.5,0.5,0.3339,TRUE,FALSE,TRUE,FALSE
NA,0.63,NA,NA,NA,NA,NA,NA,NA,NA,j.PNG,j,55e49dccc70c7a000d2a57e5,2021-09-08_17h52.58.332,forced_choiceRT,2021.1.2,Win32,60.90875868,NA,NA,NA,NA,NA,NA,NA,1,Ontime,j,1,1.9651,1,2,6,3,1,NA,NA,NA,NA,NA,1965.1000000000001,667.5500000000001,2,1,j,j,0,1,333.9,h,h,1,memory,0.5,-0.5,0.6675500000000001,FALSE,FALSE,FALSE,FALSE
NA,1.56,NA,NA,NA,NA,NA,NA,NA,NA,f.PNG,f,55e49dccc70c7a000d2a57e5,2021-09-08_17h52.58.332,forced_choiceRT,2021.1.2,Win32,60.90875868,NA,NA,NA,NA,NA,NA,NA,1,Ontime,f,1,2.0494,2,0,8,0,1,NA,NA,NA,NA,NA,2049.4,244.69999999999993,2,1,f,f,1,1,345.19999999999993,j,j,1,memory,-0.5,-0.5,0.24469999999999995,FALSE,FALSE,FALSE,FALSE
NA,1.38,NA,NA,NA,NA,NA,NA,NA,NA,g.PNG,g,55e49dccc70c7a000d2a57e5,2021-09-08_17h52.58.332,forced_choiceRT,2021.1.2,Win32,60.90875868,NA,NA,NA,NA,NA,NA,NA,1,Ontime,g,1,1.9013,2,1,9,1,1,NA,NA,NA,NA,NA,1901.3,260.65000000000003,2,1,g,g,1,1,244.69999999999993,f,f,1,memory,-0.5,-0.5,0.26065000000000005,FALSE,FALSE,FALSE,FALSE
NA,0,NA,NA,NA,NA,NA,NA,NA,NA,h.PNG,h,55e49dccc70c7a000d2a57e5,2021-09-08_17h52.58.332,forced_choiceRT,2021.1.2,Win32,60.90875868,NA,NA,NA,NA,NA,NA,NA,1,Ontime,h,1,1.9886,3,2,14,2,1,NA,NA,NA,NA,NA,1988.6,994.3,2,1,h,h,1,0,245.9,g,f,1,memory,-0.5,0.5,0.9943,FALSE,FALSE,FALSE,FALSE
NA,0.46,NA,NA,NA,NA,NA,NA,NA,NA,j.PNG,j,55e49dccc70c7a000d2a57e5,2021-09-08_17h52.58.332,forced_choiceRT,2021.1.2,Win32,60.90875868,NA,NA,NA,NA,NA,NA,NA,1,Ontime,j,1,2.0341,3,3,15,3,1,NA,NA,NA,NA,NA,2034.1,787.0500000000001,2,1,j,j,0,1,994.3,h,h,1,memory,0.5,-0.5,0.78705,FALSE,FALSE,FALSE,FALSE
NA,1.37,NA,NA,NA,NA,NA,NA,NA,NA,g.PNG,g,55e49dccc70c7a000d2a57e5,2021-09-08_17h52.58.332,forced_choiceRT,2021.1.2,Win32,60.90875868,NA,NA,NA,NA,NA,NA,NA,1,Ontime,f,0,2.0199,4,0,16,1,1,NA,NA,NA,NA,NA,2019.8999999999999,324.9499999999999,2,0,f,g,1,1,787.0500000000001,j,j,0,memory,-0.5,-0.5,0.32494999999999985,FALSE,FALSE,FALSE,FALSE
NA,0.21,NA,NA,NA,NA,NA,NA,NA,NA,f.PNG,f,55e49dccc70c7a000d2a57e5,2021-09-08_17h52.58.332,forced_choiceRT,2021.1.2,Win32,60.90875868,NA,NA,NA,NA,NA,NA,NA,1,Ontime,f,1,1.9886,4,2,18,0,1,NA,NA,NA,NA,NA,1988.6,889.3,2,1,f,f,0,1,500.75,g,g,1,memory,0.5,-0.5,0.8893,FALSE,FALSE,FALSE,FALSE
NA,0.06,NA,NA,NA,NA,NA,NA,NA,NA,h.PNG,h,55e49dccc70c7a000d2a57e5,2021-09-08_17h52.58.332,forced_choiceRT,2021.1.2,Win32,60.90875868,NA,NA,NA,NA,NA,NA,NA,1,Ontime,h,1,1.9837,5,2,22,2,1,NA,NA,NA,NA,NA,1983.7,961.85,2,1,h,h,1,1,632.1999999999999,j,j,1,memory,-0.5,-0.5,0.96185,FALSE,FALSE,FALSE,FALSE
NA,1.15,NA,NA,NA,NA,NA,NA,NA,NA,h.PNG,h,55e49dccc70c7a000d2a57e5,2021-09-08_17h52.58.332,forced_choiceRT,2021.1.2,Win32,60.90875868,NA,NA,NA,NA,NA,NA,NA,1,Ontime,h,1,1.9677,5,3,23,2,1,NA,NA,NA,NA,NA,1967.7,408.85,2,1,h,h,1,1,961.85,h,h,1,memory,-0.5,-0.5,0.40885000000000005,TRUE,TRUE,TRUE,FALSE
NA,0.9,NA,NA,NA,NA,NA,NA,NA,NA,f.PNG,f,55e49dccc70c7a000d2a57e5,2021-09-08_17h52.58.332,forced_choiceRT,2021.1.2,Win32,60.90875868,NA,NA,NA,NA,NA,NA,NA,1,Ontime,f,1,2.0649,6,2,26,0,1,NA,NA,NA,NA,NA,2064.9,582.4500000000002,2,1,f,f,1,1,1017.05,j,j,1,memory,-0.5,-0.5,0.5824500000000001,FALSE,FALSE,FALSE,FALSE
NA,0.08,NA,NA,NA,NA,NA,NA,NA,NA,j.PNG,j,55e49dccc70c7a000d2a57e5,2021-09-08_17h52.58.332,forced_choiceRT,2021.1.2,Win32,60.90875868,NA,NA,NA,NA,NA,NA,NA,1,Ontime,j,1,1.9807,7,1,29,3,1,NA,NA,NA,NA,NA,1980.6999999999998,950.3499999999999,2,1,j,j,0,1,596,j,j,1,memory,0.5,-0.5,0.9503499999999999,TRUE,TRUE,TRUE,FALSE
NA,0.69,NA,NA,NA,NA,NA,NA,NA,NA,h.PNG,h,55e49dccc70c7a000d2a57e5,2021-09-08_17h52.58.332,forced_choiceRT,2021.1.2,Win32,60.90875868,NA,NA,NA,NA,NA,NA,NA,1,Ontime,h,1,1.9646,8,0,32,2,1,NA,NA,NA,NA,NA,1964.6,637.3,2,1,h,h,0,1,463.95000000000005,g,g,1,memory,0.5,-0.5,0.6373,FALSE,FALSE,FALSE,FALSE
NA,1.77,NA,NA,NA,NA,NA,NA,NA,NA,g.PNG,g,55e49dccc70c7a000d2a57e5,2021-09-08_17h52.58.332,forced_choiceRT,2021.1.2,Win32,60.90875868,NA,NA,NA,NA,NA,NA,NA,1,Ontime,g,1,2.071,9,0,36,1,1,NA,NA,NA,NA,NA,2071,150.50000000000009,2,1,g,g,0,1,303.4,h,h,1,memory,0.5,-0.5,0.15050000000000008,FALSE,FALSE,FALSE,FALSE
NA,0.8,NA,NA,NA,NA,NA,NA,NA,NA,g.PNG,g,55e49dccc70c7a000d2a57e5,2021-09-08_17h52.58.332,forced_choiceRT,2021.1.2,Win32,60.90875868,NA,NA,NA,NA,NA,NA,NA,1,Ontime,g,1,1.9148,9,1,37,1,1,NA,NA,NA,NA,NA,1914.8,557.4,2,1,g,g,1,1,150.50000000000009,g,g,1,memory,-0.5,-0.5,0.5574,TRUE,TRUE,TRUE,FALSE
NA,0.11,NA,NA,NA,NA,NA,NA,NA,NA,f.PNG,f,55e49dccc70c7a000d2a57e5,2021-09-08_17h52.58.332,forced_choiceRT,2021.1.2,Win32,60.90875868,NA,NA,NA,NA,NA,NA,NA,2,Ontime,f,1,2.0049,0,1,1,0,1,NA,NA,NA,NA,NA,2004.9,947.45,2,1,f,f,1,1,248.1,f,f,1,memory,-0.5,-0.5,0.94745,TRUE,TRUE,TRUE,FALSE
NA,0.11,NA,NA,NA,NA,NA,NA,NA,NA,f.PNG,f,55e49dccc70c7a000d2a57e5,2021-09-08_17h52.58.332,forced_choiceRT,2021.1.2,Win32,60.90875868,NA,NA,NA,NA,NA,NA,NA,2,Ontime,f,1,1.987,0,2,2,0,1,NA,NA,NA,NA,NA,1987,938.5,2,1,f,f,1,1,947.45,f,f,1,memory,-0.5,-0.5,0.9385,TRUE,TRUE,TRUE,FALSE
NA,0.47,NA,NA,NA,NA,NA,NA,NA,NA,g.PNG,g,55e49dccc70c7a000d2a57e5,2021-09-08_17h52.58.332,forced_choiceRT,2021.1.2,Win32,60.90875868,NA,NA,NA,NA,NA,NA,NA,2,Ontime,g,1,1.9854,0,3,3,1,1,NA,NA,NA,NA,NA,1985.4,757.7,2,1,g,g,1,1,938.5,f,f,1,memory,-0.5,-0.5,0.7577,FALSE,FALSE,FALSE,FALSE
NA,0.77,NA,NA,NA,NA,NA,NA,NA,NA,f.PNG,f,55e49dccc70c7a000d2a57e5,2021-09-08_17h52.58.332,forced_choiceRT,2021.1.2,Win32,60.90875868,NA,NA,NA,NA,NA,NA,NA,2,Ontime,f,1,2.0542,1,0,4,0,1,NA,NA,NA,NA,NA,2054.2,642.0999999999999,2,1,f,f,1,1,757.7,g,g,1,memory,-0.5,-0.5,0.6420999999999999,FALSE,FALSE,FALSE,FALSE
NA,0.38,NA,NA,NA,NA,NA,NA,NA,NA,j.PNG,j,55e49dccc70c7a000d2a57e5,2021-09-08_17h52.58.332,forced_choiceRT,2021.1.2,Win32,60.90875868,NA,NA,NA,NA,NA,NA,NA,2,Ontime,j,1,1.9688,2,0,8,3,1,NA,NA,NA,NA,NA,1968.8000000000002,794.4,2,1,j,j,1,1,847.5999999999999,g,g,1,memory,-0.5,-0.5,0.7944,FALSE,FALSE,FALSE,FALSE
NA,0.49,NA,NA,NA,NA,NA,NA,NA,NA,h.PNG,h,55e49dccc70c7a000d2a57e5,2021-09-08_17h52.58.332,forced_choiceRT,2021.1.2,Win32,60.90875868,NA,NA,NA,NA,NA,NA,NA,2,Ontime,h,1,1.9512,2,2,10,2,1,NA,NA,NA,NA,NA,1951.2,730.6,2,1,h,h,1,1,255.59999999999994,f,f,1,memory,-0.5,-0.5,0.7306,FALSE,FALSE,FALSE,FALSE
NA,0.88,NA,NA,NA,NA,NA,NA,NA,NA,f.PNG,f,55e49dccc70c7a000d2a57e5,2021-09-08_17h52.58.332,forced_choiceRT,2021.1.2,Win32,60.90875868,NA,NA,NA,NA,NA,NA,NA,2,Ontime,f,1,1.9862,3,0,12,0,1,NA,NA,NA,NA,NA,1986.2,553.0999999999999,2,1,f,f,1,0,145.49999999999997,h,f,1,memory,-0.5,0.5,0.5530999999999999,FALSE,TRUE,FALSE,FALSE
NA,0.6,NA,NA,NA,NA,NA,NA,NA,NA,g.PNG,g,55e49dccc70c7a000d2a57e5,2021-09-08_17h52.58.332,forced_choiceRT,2021.1.2,Win32,60.90875868,NA,NA,NA,NA,NA,NA,NA,2,Ontime,g,1,1.9192,3,1,13,1,1,NA,NA,NA,NA,NA,1919.2,659.5999999999999,2,1,g,g,0,1,553.0999999999999,f,f,1,memory,0.5,-0.5,0.6596,FALSE,FALSE,FALSE,FALSE
NA,1.73,NA,NA,NA,NA,NA,NA,NA,NA,j.PNG,j,55e49dccc70c7a000d2a57e5,2021-09-08_17h52.58.332,forced_choiceRT,2021.1.2,Win32,60.90875868,NA,NA,NA,NA,NA,NA,NA,2,Ontime,g,0,1.9523,3,2,14,3,1,NA,NA,NA,NA,NA,1952.3,111.14999999999998,2,0,g,j,1,1,659.5999999999999,g,g,0,memory,-0.5,-0.5,0.11114999999999997,TRUE,FALSE,FALSE,FALSE
NA,0.61,NA,NA,NA,NA,NA,NA,NA,NA,g.PNG,g,55e49dccc70c7a000d2a57e5,2021-09-08_17h52.58.332,forced_choiceRT,2021.1.2,Win32,60.90875868,NA,NA,NA,NA,NA,NA,NA,2,Ontime,g,1,1.9188,3,3,15,1,1,NA,NA,NA,NA,NA,1918.8,654.4000000000001,2,1,g,g,1,0,111.14999999999998,g,j,1,memory,-0.5,0.5,0.6544000000000001,TRUE,FALSE,TRUE,FALSE
NA,1.99,NA,NA,NA,NA,NA,NA,NA,NA,g.PNG,g,55e49dccc70c7a000d2a57e5,2021-09-08_17h52.58.332,forced_choiceRT,2021.1.2,Win32,60.90875868,NA,NA,NA,NA,NA,NA,NA,2,Ontime,h,0,2.0179,4,0,16,1,1,NA,NA,NA,NA,NA,2017.9,13.950000000000017,2,0,h,g,0,1,654.4000000000001,g,g,0,memory,0.5,-0.5,0.013950000000000016,FALSE,TRUE,TRUE,FALSE
NA,1.18,NA,NA,NA,NA,NA,NA,NA,NA,j.PNG,j,55e49dccc70c7a000d2a57e5,2021-09-08_17h52.58.332,forced_choiceRT,2021.1.2,Win32,60.90875868,NA,NA,NA,NA,NA,NA,NA,2,Ontime,j,1,1.9242,4,2,18,3,1,NA,NA,NA,NA,NA,1924.1999999999998,372.09999999999997,2,1,j,j,0,0,108.0500000000001,j,h,1,memory,0.5,0.5,0.3721,TRUE,FALSE,TRUE,FALSE
NA,1.01,NA,NA,NA,NA,NA,NA,NA,NA,h.PNG,h,55e49dccc70c7a000d2a57e5,2021-09-08_17h52.58.332,forced_choiceRT,2021.1.2,Win32,60.90875868,NA,NA,NA,NA,NA,NA,NA,2,Ontime,h,1,2.0215,4,3,19,2,1,NA,NA,NA,NA,NA,2021.5,505.75000000000006,2,1,h,h,0,1,372.09999999999997,j,j,1,memory,0.5,-0.5,0.50575,FALSE,FALSE,FALSE,FALSE
NA,1.85,NA,NA,NA,NA,NA,NA,NA,NA,h.PNG,h,55e49dccc70c7a000d2a57e5,2021-09-08_17h52.58.332,forced_choiceRT,2021.1.2,Win32,60.90875868,NA,NA,NA,NA,NA,NA,NA,2,Ontime,j,0,2.0695,5,0,20,2,1,NA,NA,NA,NA,NA,2069.5,109.75000000000001,2,0,j,h,1,1,505.75000000000006,h,h,0,memory,-0.5,-0.5,0.10975000000000001,FALSE,TRUE,TRUE,FALSE
NA,0.09,NA,NA,NA,NA,NA,NA,NA,NA,j.PNG,j,55e49dccc70c7a000d2a57e5,2021-09-08_17h52.58.332,forced_choiceRT,2021.1.2,Win32,60.90875868,NA,NA,NA,NA,NA,NA,NA,2,Ontime,j,1,1.9915,5,1,21,3,1,NA,NA,NA,NA,NA,1991.5,950.75,2,1,j,j,1,0,109.75000000000001,j,h,1,memory,-0.5,0.5,0.95075,TRUE,FALSE,TRUE,FALSE
NA,1.13,NA,NA,NA,NA,NA,NA,NA,NA,j.PNG,j,55e49dccc70c7a000d2a57e5,2021-09-08_17h52.58.332,forced_choiceRT,2021.1.2,Win32,60.90875868,NA,NA,NA,NA,NA,NA,NA,2,Ontime,j,1,2.0836,5,2,22,3,1,NA,NA,NA,NA,NA,2083.6,476.8000000000001,2,1,j,j,0,1,950.75,j,j,1,memory,0.5,-0.5,0.4768000000000001,TRUE,TRUE,TRUE,FALSE
NA,0.48,NA,NA,NA,NA,NA,NA,NA,NA,h.PNG,h,55e49dccc70c7a000d2a57e5,2021-09-08_17h52.58.332,forced_choiceRT,2021.1.2,Win32,60.90875868,NA,NA,NA,NA,NA,NA,NA,2,Ontime,h,1,1.917,5,3,23,2,1,NA,NA,NA,NA,NA,1917,718.5,2,1,h,h,1,1,476.8000000000001,j,j,1,memory,-0.5,-0.5,0.7185,FALSE,FALSE,FALSE,FALSE
NA,0.91,NA,NA,NA,NA,NA,NA,NA,NA,h.PNG,h,55e49dccc70c7a000d2a57e5,2021-09-08_17h52.58.332,forced_choiceRT,2021.1.2,Win32,60.90875868,NA,NA,NA,NA,NA,NA,NA,2,Ontime,h,1,1.9573,6,0,24,2,1,NA,NA,NA,NA,NA,1957.3,523.65,2,1,h,h,1,1,718.5,h,h,1,memory,-0.5,-0.5,0.52365,TRUE,TRUE,TRUE,FALSE
NA,1.42,NA,NA,NA,NA,NA,NA,NA,NA,j.PNG,j,55e49dccc70c7a000d2a57e5,2021-09-08_17h52.58.332,forced_choiceRT,2021.1.2,Win32,60.90875868,NA,NA,NA,NA,NA,NA,NA,2,Ontime,j,1,1.9841,7,2,30,3,1,NA,NA,NA,NA,NA,1984.1,282.05,2,1,j,j,1,1,800.35,g,g,1,memory,-0.5,-0.5,0.28205,FALSE,FALSE,FALSE,FALSE
NA,0.28,NA,NA,NA,NA,NA,NA,NA,NA,f.PNG,f,55e49dccc70c7a000d2a57e5,2021-09-08_17h52.58.332,forced_choiceRT,2021.1.2,Win32,60.90875868,NA,NA,NA,NA,NA,NA,NA,2,Ontime,f,1,2.0187,7,3,31,0,1,NA,NA,NA,NA,NA,2018.7,869.3499999999999,2,1,f,f,1,1,282.05,j,j,1,memory,-0.5,-0.5,0.86935,FALSE,FALSE,FALSE,FALSE
NA,0.71,NA,NA,NA,NA,NA,NA,NA,NA,j.PNG,j,55e49dccc70c7a000d2a57e5,2021-09-08_17h52.58.332,forced_choiceRT,2021.1.2,Win32,60.90875868,NA,NA,NA,NA,NA,NA,NA,2,Ontime,j,1,1.9188,8,0,32,3,1,NA,NA,NA,NA,NA,1918.8,604.4000000000001,2,1,j,j,1,1,869.3499999999999,f,f,1,memory,-0.5,-0.5,0.6044,FALSE,FALSE,FALSE,FALSE
NA,0.06,NA,NA,NA,NA,NA,NA,NA,NA,g.PNG,g,55e49dccc70c7a000d2a57e5,2021-09-08_17h52.58.332,forced_choiceRT,2021.1.2,Win32,60.90875868,NA,NA,NA,NA,NA,NA,NA,2,Ontime,g,1,2.0354,8,1,33,1,1,NA,NA,NA,NA,NA,2035.4,987.7,2,1,g,g,1,1,604.4000000000001,j,j,1,memory,-0.5,-0.5,0.9877,FALSE,FALSE,FALSE,FALSE
NA,1.62,NA,NA,NA,NA,NA,NA,NA,NA,j.PNG,j,55e49dccc70c7a000d2a57e5,2021-09-08_17h52.58.332,forced_choiceRT,2021.1.2,Win32,60.90875868,NA,NA,NA,NA,NA,NA,NA,2,Ontime,h,0,1.9857,8,2,34,3,1,NA,NA,NA,NA,NA,1985.7,182.84999999999997,2,0,h,j,1,1,987.7,g,g,0,memory,-0.5,-0.5,0.18284999999999996,FALSE,FALSE,FALSE,FALSE
NA,1.39,NA,NA,NA,NA,NA,NA,NA,NA,j.PNG,j,55e49dccc70c7a000d2a57e5,2021-09-08_17h52.58.332,forced_choiceRT,2021.1.2,Win32,60.90875868,NA,NA,NA,NA,NA,NA,NA,2,Ontime,j,1,1.9026,9,1,37,3,1,NA,NA,NA,NA,NA,1902.6000000000001,256.30000000000007,2,1,j,j,0,1,411.25000000000006,g,g,1,memory,0.5,-0.5,0.2563000000000001,FALSE,FALSE,FALSE,FALSE
NA,0.5,NA,NA,NA,NA,NA,NA,NA,NA,j.PNG,j,55e49dccc70c7a000d2a57e5,2021-09-08_17h52.58.332,forced_choiceRT,2021.1.2,Win32,60.90875868,NA,NA,NA,NA,NA,NA,NA,2,Ontime,j,1,1.9027,9,3,39,3,1,NA,NA,NA,NA,NA,1902.7,701.35,2,1,j,j,1,1,110.70000000000002,h,h,1,memory,-0.5,-0.5,0.70135,FALSE,FALSE,FALSE,FALSE
NA,0.32,NA,NA,NA,NA,NA,NA,NA,NA,j.PNG,j,55e49dccc70c7a000d2a57e5,2021-09-08_17h52.58.332,forced_choiceRT,2021.1.2,Win32,60.90875868,NA,NA,NA,NA,NA,NA,NA,3,Ontime,j,1,1.9683,0,1,1,3,1,NA,NA,NA,NA,NA,1968.3,824.15,2,1,j,j,1,1,320.90000000000003,h,h,1,memory,-0.5,-0.5,0.8241499999999999,FALSE,FALSE,FALSE,FALSE
NA,0.11,NA,NA,NA,NA,NA,NA,NA,NA,f.PNG,f,55e49dccc70c7a000d2a57e5,2021-09-08_17h52.58.332,forced_choiceRT,2021.1.2,Win32,60.90875868,NA,NA,NA,NA,NA,NA,NA,3,Ontime,f,1,2.0053,0,2,2,0,1,NA,NA,NA,NA,NA,2005.3000000000002,947.65,2,1,f,f,1,1,824.15,j,j,1,memory,-0.5,-0.5,0.94765,FALSE,FALSE,FALSE,FALSE
NA,0.47,NA,NA,NA,NA,NA,NA,NA,NA,f.PNG,f,55e49dccc70c7a000d2a57e5,2021-09-08_17h52.58.332,forced_choiceRT,2021.1.2,Win32,60.90875868,NA,NA,NA,NA,NA,NA,NA,3,Ontime,f,1,2.0877,0,3,3,0,1,NA,NA,NA,NA,NA,2087.7,808.8499999999999,2,1,f,f,1,1,947.65,f,f,1,memory,-0.5,-0.5,0.80885,TRUE,TRUE,TRUE,FALSE
NA,0.72,NA,NA,NA,NA,NA,NA,NA,NA,h.PNG,h,55e49dccc70c7a000d2a57e5,2021-09-08_17h52.58.332,forced_choiceRT,2021.1.2,Win32,60.90875868,NA,NA,NA,NA,NA,NA,NA,3,Ontime,h,1,1.9685,1,0,4,2,1,NA,NA,NA,NA,NA,1968.5,624.25,2,1,h,h,1,1,808.8499999999999,f,f,1,memory,-0.5,-0.5,0.62425,FALSE,FALSE,FALSE,FALSE
NA,1.68,NA,NA,NA,NA,NA,NA,NA,NA,h.PNG,h,55e49dccc70c7a000d2a57e5,2021-09-08_17h52.58.332,forced_choiceRT,2021.1.2,Win32,60.90875868,NA,NA,NA,NA,NA,NA,NA,3,Ontime,h,1,2.0319,1,2,6,2,1,NA,NA,NA,NA,NA,2031.8999999999999,175.94999999999993,2,1,h,h,1,0,165.2499999999999,j,h,1,memory,-0.5,0.5,0.17594999999999994,FALSE,TRUE,FALSE,FALSE
NA,0.15,NA,NA,NA,NA,NA,NA,NA,NA,f.PNG,f,55e49dccc70c7a000d2a57e5,2021-09-08_17h52.58.332,forced_choiceRT,2021.1.2,Win32,60.90875868,NA,NA,NA,NA,NA,NA,NA,3,Ontime,f,1,1.9317,1,3,7,0,1,NA,NA,NA,NA,NA,1931.7,890.85,2,1,f,f,0,1,175.94999999999993,h,h,1,memory,0.5,-0.5,0.89085,FALSE,FALSE,FALSE,FALSE
NA,1.13,NA,NA,NA,NA,NA,NA,NA,NA,h.PNG,h,55e49dccc70c7a000d2a57e5,2021-09-08_17h52.58.332,forced_choiceRT,2021.1.2,Win32,60.90875868,NA,NA,NA,NA,NA,NA,NA,3,Ontime,h,1,1.9179,2,0,8,2,1,NA,NA,NA,NA,NA,1917.8999999999999,393.95000000000005,2,1,h,h,1,1,890.85,f,f,1,memory,-0.5,-0.5,0.39395,FALSE,FALSE,FALSE,FALSE
NA,0.18,NA,NA,NA,NA,NA,NA,NA,NA,g.PNG,g,55e49dccc70c7a000d2a57e5,2021-09-08_17h52.58.332,forced_choiceRT,2021.1.2,Win32,60.90875868,NA,NA,NA,NA,NA,NA,NA,3,Ontime,g,1,1.9002,2,1,9,1,1,NA,NA,NA,NA,NA,1900.1999999999998,860.1,2,1,g,g,1,1,393.95000000000005,h,h,1,memory,-0.5,-0.5,0.8601,FALSE,FALSE,FALSE,FALSE
NA,0.38,NA,NA,NA,NA,NA,NA,NA,NA,h.PNG,h,55e49dccc70c7a000d2a57e5,2021-09-08_17h52.58.332,forced_choiceRT,2021.1.2,Win32,60.90875868,NA,NA,NA,NA,NA,NA,NA,3,Ontime,h,1,1.9338,2,2,10,2,1,NA,NA,NA,NA,NA,1933.8,776.9,2,1,h,h,1,1,860.1,g,g,1,memory,-0.5,-0.5,0.7768999999999999,FALSE,FALSE,FALSE,FALSE
NA,1.16,NA,NA,NA,NA,NA,NA,NA,NA,g.PNG,g,55e49dccc70c7a000d2a57e5,2021-09-08_17h52.58.332,forced_choiceRT,2021.1.2,Win32,60.90875868,NA,NA,NA,NA,NA,NA,NA,3,Ontime,g,1,1.9478,2,3,11,1,1,NA,NA,NA,NA,NA,1947.8,393.90000000000003,2,1,g,g,1,1,776.9,h,h,1,memory,-0.5,-0.5,0.39390000000000003,FALSE,FALSE,FALSE,FALSE
NA,0.72,NA,NA,NA,NA,NA,NA,NA,NA,g.PNG,g,55e49dccc70c7a000d2a57e5,2021-09-08_17h52.58.332,forced_choiceRT,2021.1.2,Win32,60.90875868,NA,NA,NA,NA,NA,NA,NA,3,Ontime,g,1,1.9375,3,1,13,1,1,NA,NA,NA,NA,NA,1937.5,608.75,2,1,g,g,1,1,490.74999999999994,f,f,1,memory,-0.5,-0.5,0.60875,FALSE,FALSE,FALSE,FALSE
NA,1.97,NA,NA,NA,NA,NA,NA,NA,NA,j.PNG,j,55e49dccc70c7a000d2a57e5,2021-09-08_17h52.58.332,forced_choiceRT,2021.1.2,Win32,60.90875868,NA,NA,NA,NA,NA,NA,NA,3,Ontime,h,0,2.0069,3,2,14,3,1,NA,NA,NA,NA,NA,2006.8999999999999,18.449999999999967,2,0,h,j,1,1,608.75,g,g,0,memory,-0.5,-0.5,0.018449999999999966,FALSE,FALSE,FALSE,FALSE
NA,1.18,NA,NA,NA,NA,NA,NA,NA,NA,j.PNG,j,55e49dccc70c7a000d2a57e5,2021-09-08_17h52.58.332,forced_choiceRT,2021.1.2,Win32,60.90875868,NA,NA,NA,NA,NA,NA,NA,3,Ontime,j,1,1.9483,4,0,16,3,1,NA,NA,NA,NA,NA,1948.3,384.15,2,1,j,j,0,1,-74.1,h,h,1,memory,0.5,-0.5,0.38415,FALSE,FALSE,FALSE,TRUE
NA,0.75,NA,NA,NA,NA,NA,NA,NA,NA,g.PNG,g,55e49dccc70c7a000d2a57e5,2021-09-08_17h52.58.332,forced_choiceRT,2021.1.2,Win32,60.90875868,NA,NA,NA,NA,NA,NA,NA,3,Ontime,g,1,1.9738,4,1,17,1,1,NA,NA,NA,NA,NA,1973.8,611.9,2,1,g,g,1,1,384.15,j,j,1,memory,-0.5,-0.5,0.6119,FALSE,FALSE,FALSE,FALSE
NA,1.72,NA,NA,NA,NA,NA,NA,NA,NA,g.PNG,g,55e49dccc70c7a000d2a57e5,2021-09-08_17h52.58.332,forced_choiceRT,2021.1.2,Win32,60.90875868,NA,NA,NA,NA,NA,NA,NA,3,Ontime,j,0,1.9404,4,3,19,1,1,NA,NA,NA,NA,NA,1940.3999999999999,110.19999999999996,2,0,j,g,1,1,551.8000000000001,g,g,0,memory,-0.5,-0.5,0.11019999999999996,FALSE,TRUE,TRUE,FALSE
NA,1.22,NA,NA,NA,NA,NA,NA,NA,NA,g.PNG,g,55e49dccc70c7a000d2a57e5,2021-09-08_17h52.58.332,forced_choiceRT,2021.1.2,Win32,60.90875868,NA,NA,NA,NA,NA,NA,NA,3,Ontime,g,1,1.9477,5,0,20,1,1,NA,NA,NA,NA,NA,1947.7,363.85,2,1,g,g,1,0,110.19999999999996,j,g,1,memory,-0.5,0.5,0.36385,FALSE,TRUE,FALSE,FALSE
NA,1.48,NA,NA,NA,NA,NA,NA,NA,NA,f.PNG,f,55e49dccc70c7a000d2a57e5,2021-09-08_17h52.58.332,forced_choiceRT,2021.1.2,Win32,60.90875868,NA,NA,NA,NA,NA,NA,NA,3,Ontime,h,0,1.9517,5,1,21,0,1,NA,NA,NA,NA,NA,1951.7,235.85,2,0,h,f,0,1,363.85,g,g,0,memory,0.5,-0.5,0.23585,FALSE,FALSE,FALSE,FALSE
NA,1.34,NA,NA,NA,NA,NA,NA,NA,NA,f.PNG,f,55e49dccc70c7a000d2a57e5,2021-09-08_17h52.58.332,forced_choiceRT,2021.1.2,Win32,60.90875868,NA,NA,NA,NA,NA,NA,NA,3,Ontime,f,1,1.9145,5,2,22,0,1,NA,NA,NA,NA,NA,1914.5,287.25,2,1,f,f,1,0,235.85,h,f,1,memory,-0.5,0.5,0.28725,FALSE,TRUE,FALSE,FALSE
NA,1.37,NA,NA,NA,NA,NA,NA,NA,NA,f.PNG,f,55e49dccc70c7a000d2a57e5,2021-09-08_17h52.58.332,forced_choiceRT,2021.1.2,Win32,60.90875868,NA,NA,NA,NA,NA,NA,NA,3,Ontime,f,1,1.9713,5,3,23,0,1,NA,NA,NA,NA,NA,1971.3,300.65,2,1,f,f,0,1,287.25,f,f,1,memory,0.5,-0.5,0.30065,TRUE,TRUE,TRUE,FALSE
NA,1.29,NA,NA,NA,NA,NA,NA,NA,NA,j.PNG,j,55e49dccc70c7a000d2a57e5,2021-09-08_17h52.58.332,forced_choiceRT,2021.1.2,Win32,60.90875868,NA,NA,NA,NA,NA,NA,NA,3,Ontime,j,1,1.9145,6,2,26,3,1,NA,NA,NA,NA,NA,1914.5,312.25,2,1,j,j,1,1,916.15,g,g,1,memory,-0.5,-0.5,0.31225,FALSE,FALSE,FALSE,FALSE
NA,0.69,NA,NA,NA,NA,NA,NA,NA,NA,f.PNG,f,55e49dccc70c7a000d2a57e5,2021-09-08_17h52.58.332,forced_choiceRT,2021.1.2,Win32,60.90875868,NA,NA,NA,NA,NA,NA,NA,3,Ontime,f,1,1.9648,7,1,29,0,1,NA,NA,NA,NA,NA,1964.8000000000002,637.4000000000001,2,1,f,f,1,1,270.79999999999995,h,h,1,memory,-0.5,-0.5,0.6374000000000001,FALSE,FALSE,FALSE,FALSE
NA,0.56,NA,NA,NA,NA,NA,NA,NA,NA,j.PNG,j,55e49dccc70c7a000d2a57e5,2021-09-08_17h52.58.332,forced_choiceRT,2021.1.2,Win32,60.90875868,NA,NA,NA,NA,NA,NA,NA,3,Ontime,j,1,1.9549,7,2,30,3,1,NA,NA,NA,NA,NA,1954.9,697.45,2,1,j,j,1,1,637.4000000000001,f,f,1,memory,-0.5,-0.5,0.69745,FALSE,FALSE,FALSE,FALSE
NA,1.46,NA,NA,NA,NA,NA,NA,NA,NA,f.PNG,f,55e49dccc70c7a000d2a57e5,2021-09-08_17h52.58.332,forced_choiceRT,2021.1.2,Win32,60.90875868,NA,NA,NA,NA,NA,NA,NA,3,Ontime,f,1,1.9183,7,3,31,0,1,NA,NA,NA,NA,NA,1918.3,229.14999999999998,2,1,f,f,1,1,697.45,j,j,1,memory,-0.5,-0.5,0.22914999999999996,FALSE,FALSE,FALSE,FALSE
NA,0.74,NA,NA,NA,NA,NA,NA,NA,NA,j.PNG,j,55e49dccc70c7a000d2a57e5,2021-09-08_17h52.58.332,forced_choiceRT,2021.1.2,Win32,60.90875868,NA,NA,NA,NA,NA,NA,NA,3,Ontime,j,1,1.9372,8,1,33,3,1,NA,NA,NA,NA,NA,1937.2,598.6,2,1,j,j,1,1,799.75,g,g,1,memory,-0.5,-0.5,0.5986,FALSE,FALSE,FALSE,FALSE
NA,1.29,NA,NA,NA,NA,NA,NA,NA,NA,g.PNG,g,55e49dccc70c7a000d2a57e5,2021-09-08_17h52.58.332,forced_choiceRT,2021.1.2,Win32,60.90875868,NA,NA,NA,NA,NA,NA,NA,3,Ontime,g,1,1.9008,8,2,34,1,1,NA,NA,NA,NA,NA,1900.8,305.4,2,1,g,g,1,1,598.6,j,j,1,memory,-0.5,-0.5,0.3054,FALSE,FALSE,FALSE,FALSE
NA,0.32,NA,NA,NA,NA,NA,NA,NA,NA,j.PNG,j,55e49dccc70c7a000d2a57e5,2021-09-08_17h52.58.332,forced_choiceRT,2021.1.2,Win32,60.90875868,NA,NA,NA,NA,NA,NA,NA,3,Ontime,j,1,1.975,9,1,37,3,1,NA,NA,NA,NA,NA,1975,827.5,2,1,j,j,1,1,3087.1000000000004,j,j,1,memory,-0.5,-0.5,0.8275,TRUE,TRUE,TRUE,FALSE
NA,1.73,NA,NA,NA,NA,NA,NA,NA,NA,j.PNG,j,55e49dccc70c7a000d2a57e5,2021-09-08_17h52.58.332,forced_choiceRT,2021.1.2,Win32,60.90875868,NA,NA,NA,NA,NA,NA,NA,3,Ontime,h,0,1.9349,9,2,38,3,1,NA,NA,NA,NA,NA,1934.9,102.45000000000005,2,0,h,j,1,1,827.5,j,j,0,memory,-0.5,-0.5,0.10245000000000004,FALSE,TRUE,TRUE,FALSE
NA,0.72,NA,NA,NA,NA,NA,NA,NA,NA,j.PNG,j,55e49dccc70c7a000d2a57e5,2021-09-08_17h52.58.332,forced_choiceRT,2021.1.2,Win32,60.90875868,NA,NA,NA,NA,NA,NA,NA,3,Ontime,j,1,1.9359,9,3,39,3,1,NA,NA,NA,NA,NA,1935.8999999999999,607.95,2,1,j,j,1,0,102.45000000000005,h,j,1,memory,-0.5,0.5,0.60795,FALSE,TRUE,FALSE,FALSE
NA,0.51,NA,NA,NA,NA,NA,NA,NA,NA,h.PNG,h,55e49dccc70c7a000d2a57e5,2021-09-08_17h52.58.332,forced_choiceRT,2021.1.2,Win32,60.90875868,NA,NA,NA,NA,NA,NA,NA,4,Ontime,h,1,2.0954,0,1,1,2,1,NA,NA,NA,NA,NA,2095.4,792.7,2,1,h,h,1,1,667.7500000000001,h,h,1,memory,-0.5,-0.5,0.7927000000000001,TRUE,TRUE,TRUE,FALSE
NA,1.7,NA,NA,NA,NA,NA,NA,NA,NA,f.PNG,f,55e49dccc70c7a000d2a57e5,2021-09-08_17h52.58.332,forced_choiceRT,2021.1.2,Win32,60.90875868,NA,NA,NA,NA,NA,NA,NA,4,Ontime,h,0,2.0345,0,2,2,0,1,NA,NA,NA,NA,NA,2034.5,167.25,2,0,h,f,1,1,792.7,h,h,0,memory,-0.5,-0.5,0.16725,TRUE,FALSE,FALSE,FALSE
NA,1.97,NA,NA,NA,NA,NA,NA,NA,NA,j.PNG,j,55e49dccc70c7a000d2a57e5,2021-09-08_17h52.58.332,forced_choiceRT,2021.1.2,Win32,60.90875868,NA,NA,NA,NA,NA,NA,NA,4,Ontime,f,0,1.9843,1,1,5,3,1,NA,NA,NA,NA,NA,1984.3,7.14999999999999,2,0,f,j,1,1,383.1,g,g,0,memory,-0.5,-0.5,0.00714999999999999,FALSE,FALSE,FALSE,FALSE
NA,0.18,NA,NA,NA,NA,NA,NA,NA,NA,h.PNG,h,55e49dccc70c7a000d2a57e5,2021-09-08_17h52.58.332,forced_choiceRT,2021.1.2,Win32,60.90875868,NA,NA,NA,NA,NA,NA,NA,4,Ontime,h,1,2.0018,1,2,6,2,1,NA,NA,NA,NA,NA,2001.7999999999997,910.9,2,1,h,h,1,0,7.14999999999999,f,j,1,memory,-0.5,0.5,0.9108999999999999,FALSE,FALSE,FALSE,TRUE
NA,1.15,NA,NA,NA,NA,NA,NA,NA,NA,j.PNG,j,55e49dccc70c7a000d2a57e5,2021-09-08_17h52.58.332,forced_choiceRT,2021.1.2,Win32,60.90875868,NA,NA,NA,NA,NA,NA,NA,4,Ontime,j,1,1.9751,2,0,8,3,1,NA,NA,NA,NA,NA,1975.1000000000001,412.55000000000007,2,1,j,j,1,1,265.65000000000003,j,j,1,memory,-0.5,-0.5,0.4125500000000001,TRUE,TRUE,TRUE,FALSE
NA,0.58,NA,NA,NA,NA,NA,NA,NA,NA,g.PNG,g,55e49dccc70c7a000d2a57e5,2021-09-08_17h52.58.332,forced_choiceRT,2021.1.2,Win32,60.90875868,NA,NA,NA,NA,NA,NA,NA,4,Ontime,g,1,1.9691,2,3,11,1,1,NA,NA,NA,NA,NA,1969.1000000000001,694.55,2,1,g,g,1,1,263.85,h,h,1,memory,-0.5,-0.5,0.69455,FALSE,FALSE,FALSE,FALSE
NA,0.5,NA,NA,NA,NA,NA,NA,NA,NA,f.PNG,f,55e49dccc70c7a000d2a57e5,2021-09-08_17h52.58.332,forced_choiceRT,2021.1.2,Win32,60.90875868,NA,NA,NA,NA,NA,NA,NA,4,Ontime,f,1,1.9598,3,1,13,0,1,NA,NA,NA,NA,NA,1959.8,729.9,2,1,f,f,1,1,-20.549999999999958,g,g,1,memory,-0.5,-0.5,0.7299,FALSE,FALSE,FALSE,TRUE
NA,0.35,NA,NA,NA,NA,NA,NA,NA,NA,g.PNG,g,55e49dccc70c7a000d2a57e5,2021-09-08_17h52.58.332,forced_choiceRT,2021.1.2,Win32,60.90875868,NA,NA,NA,NA,NA,NA,NA,4,Ontime,g,1,1.9712,3,3,15,1,1,NA,NA,NA,NA,NA,1971.2,810.6,2,1,g,g,1,0,85.95000000000009,g,h,1,memory,-0.5,0.5,0.8106,TRUE,FALSE,TRUE,TRUE
NA,0.34,NA,NA,NA,NA,NA,NA,NA,NA,j.PNG,j,55e49dccc70c7a000d2a57e5,2021-09-08_17h52.58.332,forced_choiceRT,2021.1.2,Win32,60.90875868,NA,NA,NA,NA,NA,NA,NA,4,Ontime,j,1,1.9883,4,0,16,3,1,NA,NA,NA,NA,NA,1988.3,824.15,2,1,j,j,0,1,810.6,g,g,1,memory,0.5,-0.5,0.8241499999999999,FALSE,FALSE,FALSE,FALSE
NA,1.08,NA,NA,NA,NA,NA,NA,NA,NA,f.PNG,f,55e49dccc70c7a000d2a57e5,2021-09-08_17h52.58.332,forced_choiceRT,2021.1.2,Win32,60.90875868,NA,NA,NA,NA,NA,NA,NA,4,Ontime,f,1,1.9037,4,1,17,0,1,NA,NA,NA,NA,NA,1903.7,411.84999999999997,2,1,f,f,1,1,824.15,j,j,1,memory,-0.5,-0.5,0.41184999999999994,FALSE,FALSE,FALSE,FALSE
NA,1.92,NA,NA,NA,NA,NA,NA,NA,NA,j.PNG,j,55e49dccc70c7a000d2a57e5,2021-09-08_17h52.58.332,forced_choiceRT,2021.1.2,Win32,60.90875868,NA,NA,NA,NA,NA,NA,NA,4,Ontime,f,0,1.9753,4,2,18,3,1,NA,NA,NA,NA,NA,1975.3,27.650000000000063,2,0,f,j,1,1,411.84999999999997,f,f,0,memory,-0.5,-0.5,0.027650000000000063,TRUE,FALSE,FALSE,FALSE
NA,0.54,NA,NA,NA,NA,NA,NA,NA,NA,g.PNG,g,55e49dccc70c7a000d2a57e5,2021-09-08_17h52.58.332,forced_choiceRT,2021.1.2,Win32,60.90875868,NA,NA,NA,NA,NA,NA,NA,4,Ontime,g,1,1.9522,4,3,19,1,1,NA,NA,NA,NA,NA,1952.2,706.0999999999999,2,1,g,g,1,0,27.650000000000063,f,j,1,memory,-0.5,0.5,0.7061,FALSE,FALSE,FALSE,TRUE
NA,0.25,NA,NA,NA,NA,NA,NA,NA,NA,h.PNG,h,55e49dccc70c7a000d2a57e5,2021-09-08_17h52.58.332,forced_choiceRT,2021.1.2,Win32,60.90875868,NA,NA,NA,NA,NA,NA,NA,4,Ontime,h,1,1.9567,5,0,20,2,1,NA,NA,NA,NA,NA,1956.7,853.35,2,1,h,h,0,1,706.0999999999999,g,g,1,memory,0.5,-0.5,0.85335,FALSE,FALSE,FALSE,FALSE
NA,1.63,NA,NA,NA,NA,NA,NA,NA,NA,f.PNG,f,55e49dccc70c7a000d2a57e5,2021-09-08_17h52.58.332,forced_choiceRT,2021.1.2,Win32,60.90875868,NA,NA,NA,NA,NA,NA,NA,4,Ontime,j,0,1.9029,5,2,22,0,1,NA,NA,NA,NA,NA,1902.9,136.45000000000007,2,0,j,f,1,1,477.35,j,j,0,memory,-0.5,-0.5,0.13645000000000007,TRUE,FALSE,FALSE,FALSE
NA,1.68,NA,NA,NA,NA,NA,NA,NA,NA,f.PNG,f,55e49dccc70c7a000d2a57e5,2021-09-08_17h52.58.332,forced_choiceRT,2021.1.2,Win32,60.90875868,NA,NA,NA,NA,NA,NA,NA,4,Ontime,f,1,1.969,5,3,23,0,1,NA,NA,NA,NA,NA,1969,144.50000000000009,2,1,f,f,1,0,136.45000000000007,j,f,1,memory,-0.5,0.5,0.14450000000000007,FALSE,TRUE,FALSE,FALSE
NA,1.29,NA,NA,NA,NA,NA,NA,NA,NA,f.PNG,f,55e49dccc70c7a000d2a57e5,2021-09-08_17h52.58.332,forced_choiceRT,2021.1.2,Win32,60.90875868,NA,NA,NA,NA,NA,NA,NA,4,Ontime,f,1,1.9688,6,0,24,0,1,NA,NA,NA,NA,NA,1968.8000000000002,339.40000000000003,2,1,f,f,0,1,144.50000000000009,f,f,1,memory,0.5,-0.5,0.33940000000000003,TRUE,TRUE,TRUE,FALSE
NA,1.7,NA,NA,NA,NA,NA,NA,NA,NA,g.PNG,g,55e49dccc70c7a000d2a57e5,2021-09-08_17h52.58.332,forced_choiceRT,2021.1.2,Win32,60.90875868,NA,NA,NA,NA,NA,NA,NA,4,Ontime,f,0,2.0932,6,1,25,1,1,NA,NA,NA,NA,NA,2093.2,196.6,2,0,f,g,1,1,339.40000000000003,f,f,0,memory,-0.5,-0.5,0.1966,TRUE,FALSE,FALSE,FALSE
NA,0.65,NA,NA,NA,NA,NA,NA,NA,NA,h.PNG,h,55e49dccc70c7a000d2a57e5,2021-09-08_17h52.58.332,forced_choiceRT,2021.1.2,Win32,60.90875868,NA,NA,NA,NA,NA,NA,NA,4,Ontime,h,1,1.9538,6,2,26,2,1,NA,NA,NA,NA,NA,1953.8,651.9,2,1,h,h,1,0,196.6,f,g,1,memory,-0.5,0.5,0.6518999999999999,FALSE,FALSE,FALSE,FALSE
NA,1.39,NA,NA,NA,NA,NA,NA,NA,NA,j.PNG,j,55e49dccc70c7a000d2a57e5,2021-09-08_17h52.58.332,forced_choiceRT,2021.1.2,Win32,60.90875868,NA,NA,NA,NA,NA,NA,NA,4,Ontime,j,1,1.9079,7,0,28,3,1,NA,NA,NA,NA,NA,1907.8999999999999,258.95,2,1,j,j,1,1,253.29999999999998,h,h,1,memory,-0.5,-0.5,0.25895,FALSE,FALSE,FALSE,FALSE
NA,0.39,NA,NA,NA,NA,NA,NA,NA,NA,f.PNG,f,55e49dccc70c7a000d2a57e5,2021-09-08_17h52.58.332,forced_choiceRT,2021.1.2,Win32,60.90875868,NA,NA,NA,NA,NA,NA,NA,4,Ontime,f,1,1.9192,7,1,29,0,1,NA,NA,NA,NA,NA,1919.2,764.5999999999999,2,1,f,f,1,1,258.95,j,j,1,memory,-0.5,-0.5,0.7646,FALSE,FALSE,FALSE,FALSE
NA,0.25,NA,NA,NA,NA,NA,NA,NA,NA,g.PNG,g,55e49dccc70c7a000d2a57e5,2021-09-08_17h52.58.332,forced_choiceRT,2021.1.2,Win32,60.90875868,NA,NA,NA,NA,NA,NA,NA,4,Ontime,g,1,1.952,7,3,31,1,1,NA,NA,NA,NA,NA,1952,851,2,1,g,g,1,1,510.65000000000003,f,f,1,memory,-0.5,-0.5,0.851,FALSE,FALSE,FALSE,FALSE
NA,1.46,NA,NA,NA,NA,NA,NA,NA,NA,f.PNG,f,55e49dccc70c7a000d2a57e5,2021-09-08_17h52.58.332,forced_choiceRT,2021.1.2,Win32,60.90875868,NA,NA,NA,NA,NA,NA,NA,4,Ontime,f,1,1.9356,8,0,32,0,1,NA,NA,NA,NA,NA,1935.6,237.8,2,1,f,f,1,1,851,g,g,1,memory,-0.5,-0.5,0.2378,FALSE,FALSE,FALSE,FALSE
NA,1.35,NA,NA,NA,NA,NA,NA,NA,NA,j.PNG,j,55e49dccc70c7a000d2a57e5,2021-09-08_17h52.58.332,forced_choiceRT,2021.1.2,Win32,60.90875868,NA,NA,NA,NA,NA,NA,NA,4,Ontime,j,1,1.9552,8,1,33,3,1,NA,NA,NA,NA,NA,1955.2,302.59999999999997,2,1,j,j,1,1,237.8,f,f,1,memory,-0.5,-0.5,0.3026,FALSE,FALSE,FALSE,FALSE
NA,0.18,NA,NA,NA,NA,NA,NA,NA,NA,h.PNG,h,55e49dccc70c7a000d2a57e5,2021-09-08_17h52.58.332,forced_choiceRT,2021.1.2,Win32,60.90875868,NA,NA,NA,NA,NA,NA,NA,4,Ontime,h,1,2.0523,8,3,35,2,1,NA,NA,NA,NA,NA,2052.2999999999997,936.15,2,1,h,h,1,1,522.7499999999999,g,g,1,memory,-0.5,-0.5,0.9361499999999999,FALSE,FALSE,FALSE,FALSE
NA,1.11,NA,NA,NA,NA,NA,NA,NA,NA,g.PNG,g,55e49dccc70c7a000d2a57e5,2021-09-08_17h52.58.332,forced_choiceRT,2021.1.2,Win32,60.90875868,NA,NA,NA,NA,NA,NA,NA,4,Ontime,g,1,2.0537,9,0,36,1,1,NA,NA,NA,NA,NA,2053.7000000000003,471.84999999999997,2,1,g,g,1,1,936.15,h,h,1,memory,-0.5,-0.5,0.47185,FALSE,FALSE,FALSE,FALSE
NA,1.48,NA,NA,NA,NA,NA,NA,NA,NA,j.PNG,j,55e49dccc70c7a000d2a57e5,2021-09-08_17h52.58.332,forced_choiceRT,2021.1.2,Win32,60.90875868,NA,NA,NA,NA,NA,NA,NA,4,Ontime,j,1,2.0262,9,1,37,3,1,NA,NA,NA,NA,NA,2026.1999999999998,273.0999999999999,2,1,j,j,1,1,471.84999999999997,g,g,1,memory,-0.5,-0.5,0.2730999999999999,FALSE,FALSE,FALSE,FALSE
NA,1.44,NA,NA,NA,NA,NA,NA,NA,NA,g.PNG,g,55e49dccc70c7a000d2a57e5,2021-09-08_17h52.58.332,forced_choiceRT,2021.1.2,Win32,60.90875868,NA,NA,NA,NA,NA,NA,NA,4,Ontime,g,1,1.9867,9,2,38,1,1,NA,NA,NA,NA,NA,1986.6999999999998,273.34999999999997,2,1,g,g,1,1,273.0999999999999,j,j,1,memory,-0.5,-0.5,0.27335,FALSE,FALSE,FALSE,FALSE
NA,0.24,NA,NA,NA,NA,NA,NA,NA,NA,f.PNG,f,55e49dccc70c7a000d2a57e5,2021-09-08_17h52.58.332,forced_choiceRT,2021.1.2,Win32,60.90875868,NA,NA,NA,NA,NA,NA,NA,4,Ontime,f,1,1.9855,9,3,39,0,1,NA,NA,NA,NA,NA,1985.5,872.75,2,1,f,f,1,1,273.34999999999997,g,g,1,memory,-0.5,-0.5,0.87275,FALSE,FALSE,FALSE,FALSE
NA,1.74,NA,NA,NA,NA,NA,NA,NA,NA,j.PNG,j,55e49dccc70c7a000d2a57e5,2021-09-08_17h52.58.332,forced_choiceRT,2021.1.2,Win32,60.90875868,NA,NA,NA,NA,NA,NA,NA,5,Ontime,g,0,1.9201,0,3,3,3,1,NA,NA,NA,NA,NA,1920.1,90.04999999999997,2,0,g,j,1,1,500.3500000000001,g,g,0,memory,-0.5,-0.5,0.09004999999999996,TRUE,FALSE,FALSE,FALSE
NA,0.84,NA,NA,NA,NA,NA,NA,NA,NA,j.PNG,j,55e49dccc70c7a000d2a57e5,2021-09-08_17h52.58.332,forced_choiceRT,2021.1.2,Win32,60.90875868,NA,NA,NA,NA,NA,NA,NA,5,Ontime,j,1,2.0517,1,1,5,3,1,NA,NA,NA,NA,NA,2051.7,605.85,2,1,j,j,0,1,382.44999999999993,h,h,1,memory,0.5,-0.5,0.60585,FALSE,FALSE,FALSE,FALSE
NA,0.86,NA,NA,NA,NA,NA,NA,NA,NA,j.PNG,j,55e49dccc70c7a000d2a57e5,2021-09-08_17h52.58.332,forced_choiceRT,2021.1.2,Win32,60.90875868,NA,NA,NA,NA,NA,NA,NA,5,Ontime,j,1,2.0419,1,2,6,3,1,NA,NA,NA,NA,NA,2041.9,590.95,2,1,j,j,1,1,605.85,j,j,1,memory,-0.5,-0.5,0.5909500000000001,TRUE,TRUE,TRUE,FALSE
NA,0.48,NA,NA,NA,NA,NA,NA,NA,NA,g.PNG,g,55e49dccc70c7a000d2a57e5,2021-09-08_17h52.58.332,forced_choiceRT,2021.1.2,Win32,60.90875868,NA,NA,NA,NA,NA,NA,NA,5,Ontime,g,1,2.0761,1,3,7,1,1,NA,NA,NA,NA,NA,2076.1,798.05,2,1,g,g,1,1,590.95,j,j,1,memory,-0.5,-0.5,0.7980499999999999,FALSE,FALSE,FALSE,FALSE
NA,1.41,NA,NA,NA,NA,NA,NA,NA,NA,f.PNG,f,55e49dccc70c7a000d2a57e5,2021-09-08_17h52.58.332,forced_choiceRT,2021.1.2,Win32,60.90875868,NA,NA,NA,NA,NA,NA,NA,5,Ontime,f,1,1.9014,2,0,8,0,1,NA,NA,NA,NA,NA,1901.4,245.70000000000002,2,1,f,f,1,1,798.05,g,g,1,memory,-0.5,-0.5,0.24570000000000003,FALSE,FALSE,FALSE,FALSE
NA,0.72,NA,NA,NA,NA,NA,NA,NA,NA,g.PNG,g,55e49dccc70c7a000d2a57e5,2021-09-08_17h52.58.332,forced_choiceRT,2021.1.2,Win32,60.90875868,NA,NA,NA,NA,NA,NA,NA,5,Ontime,g,1,1.9857,2,2,10,1,1,NA,NA,NA,NA,NA,1985.7,632.85,2,1,g,g,1,1,301.2499999999999,j,j,1,memory,-0.5,-0.5,0.63285,FALSE,FALSE,FALSE,FALSE
NA,1.28,NA,NA,NA,NA,NA,NA,NA,NA,h.PNG,h,55e49dccc70c7a000d2a57e5,2021-09-08_17h52.58.332,forced_choiceRT,2021.1.2,Win32,60.90875868,NA,NA,NA,NA,NA,NA,NA,5,Ontime,h,1,2.0181,3,1,13,2,1,NA,NA,NA,NA,NA,2018.1,369.05,2,1,h,h,1,1,399.05,g,g,1,memory,-0.5,-0.5,0.36905,FALSE,FALSE,FALSE,FALSE
NA,0.65,NA,NA,NA,NA,NA,NA,NA,NA,j.PNG,j,55e49dccc70c7a000d2a57e5,2021-09-08_17h52.58.332,forced_choiceRT,2021.1.2,Win32,60.90875868,NA,NA,NA,NA,NA,NA,NA,5,Ontime,j,1,1.9558,3,2,14,3,1,NA,NA,NA,NA,NA,1955.8,652.9000000000001,2,1,j,j,1,1,369.05,h,h,1,memory,-0.5,-0.5,0.6529,FALSE,FALSE,FALSE,FALSE
NA,0.15,NA,NA,NA,NA,NA,NA,NA,NA,h.PNG,h,55e49dccc70c7a000d2a57e5,2021-09-08_17h52.58.332,forced_choiceRT,2021.1.2,Win32,60.90875868,NA,NA,NA,NA,NA,NA,NA,5,Ontime,h,1,1.9856,4,0,16,2,1,NA,NA,NA,NA,NA,1985.6000000000001,917.8000000000001,2,1,h,h,1,1,712.8,f,f,1,memory,-0.5,-0.5,0.9178000000000001,FALSE,FALSE,FALSE,FALSE
NA,1.19,NA,NA,NA,NA,NA,NA,NA,NA,j.PNG,j,55e49dccc70c7a000d2a57e5,2021-09-08_17h52.58.332,forced_choiceRT,2021.1.2,Win32,60.90875868,NA,NA,NA,NA,NA,NA,NA,5,Ontime,j,1,2.0036,4,1,17,3,1,NA,NA,NA,NA,NA,2003.6000000000001,406.80000000000007,2,1,j,j,1,1,917.8000000000001,h,h,1,memory,-0.5,-0.5,0.40680000000000005,FALSE,FALSE,FALSE,FALSE
NA,0.58,NA,NA,NA,NA,NA,NA,NA,NA,g.PNG,g,55e49dccc70c7a000d2a57e5,2021-09-08_17h52.58.332,forced_choiceRT,2021.1.2,Win32,60.90875868,NA,NA,NA,NA,NA,NA,NA,5,Ontime,g,1,2.0688,4,2,18,1,1,NA,NA,NA,NA,NA,2068.8,744.4,2,1,g,g,1,1,406.80000000000007,j,j,1,memory,-0.5,-0.5,0.7444,FALSE,FALSE,FALSE,FALSE
NA,0.91,NA,NA,NA,NA,NA,NA,NA,NA,f.PNG,f,55e49dccc70c7a000d2a57e5,2021-09-08_17h52.58.332,forced_choiceRT,2021.1.2,Win32,60.90875868,NA,NA,NA,NA,NA,NA,NA,5,Ontime,f,1,1.991,4,3,19,0,1,NA,NA,NA,NA,NA,1991,540.5,2,1,f,f,1,1,744.4,g,g,1,memory,-0.5,-0.5,0.5405,FALSE,FALSE,FALSE,FALSE
NA,1.79,NA,NA,NA,NA,NA,NA,NA,NA,g.PNG,g,55e49dccc70c7a000d2a57e5,2021-09-08_17h52.58.332,forced_choiceRT,2021.1.2,Win32,60.90875868,NA,NA,NA,NA,NA,NA,NA,5,Ontime,j,0,2.0744,5,0,20,1,1,NA,NA,NA,NA,NA,2074.3999999999996,142.19999999999987,2,0,j,g,1,1,540.5,f,f,0,memory,-0.5,-0.5,0.14219999999999988,FALSE,FALSE,FALSE,FALSE
NA,1.48,NA,NA,NA,NA,NA,NA,NA,NA,f.PNG,f,55e49dccc70c7a000d2a57e5,2021-09-08_17h52.58.332,forced_choiceRT,2021.1.2,Win32,60.90875868,NA,NA,NA,NA,NA,NA,NA,5,Ontime,g,0,1.9188,5,1,21,0,1,NA,NA,NA,NA,NA,1918.8,219.40000000000003,2,0,g,f,1,0,142.19999999999987,j,g,0,memory,-0.5,0.5,0.21940000000000004,FALSE,FALSE,FALSE,FALSE
NA,1.73,NA,NA,NA,NA,NA,NA,NA,NA,f.PNG,f,55e49dccc70c7a000d2a57e5,2021-09-08_17h52.58.332,forced_choiceRT,2021.1.2,Win32,60.90875868,NA,NA,NA,NA,NA,NA,NA,5,Ontime,f,1,2.0024,5,2,22,0,1,NA,NA,NA,NA,NA,2002.4,136.2000000000001,2,1,f,f,0,0,219.40000000000003,g,f,1,memory,0.5,0.5,0.1362000000000001,FALSE,TRUE,FALSE,FALSE
NA,0.13,NA,NA,NA,NA,NA,NA,NA,NA,h.PNG,h,55e49dccc70c7a000d2a57e5,2021-09-08_17h52.58.332,forced_choiceRT,2021.1.2,Win32,60.90875868,NA,NA,NA,NA,NA,NA,NA,5,Ontime,h,1,2.0243,5,3,23,2,1,NA,NA,NA,NA,NA,2024.3000000000002,947.1500000000002,2,1,h,h,0,1,136.2000000000001,f,f,1,memory,0.5,-0.5,0.9471500000000002,FALSE,FALSE,FALSE,FALSE
NA,1.47,NA,NA,NA,NA,NA,NA,NA,NA,f.PNG,f,55e49dccc70c7a000d2a57e5,2021-09-08_17h52.58.332,forced_choiceRT,2021.1.2,Win32,60.90875868,NA,NA,NA,NA,NA,NA,NA,5,Ontime,f,1,2.0023,6,0,24,0,1,NA,NA,NA,NA,NA,2002.3,266.15,2,1,f,f,1,1,947.1500000000002,h,h,1,memory,-0.5,-0.5,0.26615,FALSE,FALSE,FALSE,FALSE
NA,1.84,NA,NA,NA,NA,NA,NA,NA,NA,h.PNG,h,55e49dccc70c7a000d2a57e5,2021-09-08_17h52.58.332,forced_choiceRT,2021.1.2,Win32,60.90875868,NA,NA,NA,NA,NA,NA,NA,5,Ontime,j,0,2.0843,6,3,27,2,1,NA,NA,NA,NA,NA,2084.2999999999997,122.14999999999986,2,0,j,h,1,1,1012.0499999999998,g,g,0,memory,-0.5,-0.5,0.12214999999999987,FALSE,FALSE,FALSE,FALSE
NA,0,NA,NA,NA,NA,NA,NA,NA,NA,j.PNG,j,55e49dccc70c7a000d2a57e5,2021-09-08_17h52.58.332,forced_choiceRT,2021.1.2,Win32,60.90875868,NA,NA,NA,NA,NA,NA,NA,5,Ontime,j,1,1.9713,7,0,28,3,1,NA,NA,NA,NA,NA,1971.3,985.65,2,1,j,j,1,0,122.14999999999986,j,h,1,memory,-0.5,0.5,0.98565,TRUE,FALSE,TRUE,FALSE
NA,1.83,NA,NA,NA,NA,NA,NA,NA,NA,f.PNG,f,55e49dccc70c7a000d2a57e5,2021-09-08_17h52.58.332,forced_choiceRT,2021.1.2,Win32,60.90875868,NA,NA,NA,NA,NA,NA,NA,5,Ontime,h,0,2.0509,7,1,29,0,1,NA,NA,NA,NA,NA,2050.9,110.44999999999993,2,0,h,f,0,1,985.65,j,j,0,memory,0.5,-0.5,0.11044999999999994,FALSE,FALSE,FALSE,FALSE
NA,1.69,NA,NA,NA,NA,NA,NA,NA,NA,j.PNG,j,55e49dccc70c7a000d2a57e5,2021-09-08_17h52.58.332,forced_choiceRT,2021.1.2,Win32,60.90875868,NA,NA,NA,NA,NA,NA,NA,5,Ontime,g,0,2.019,7,2,30,3,1,NA,NA,NA,NA,NA,2019.0000000000002,164.50000000000009,2,0,g,j,1,0,110.44999999999993,h,f,0,memory,-0.5,0.5,0.1645000000000001,FALSE,FALSE,FALSE,FALSE
NA,1.3,NA,NA,NA,NA,NA,NA,NA,NA,g.PNG,g,55e49dccc70c7a000d2a57e5,2021-09-08_17h52.58.332,forced_choiceRT,2021.1.2,Win32,60.90875868,NA,NA,NA,NA,NA,NA,NA,5,Ontime,g,1,1.9196,7,3,31,1,1,NA,NA,NA,NA,NA,1919.6,309.79999999999995,2,1,g,g,0,0,164.50000000000009,g,j,1,memory,0.5,0.5,0.30979999999999996,TRUE,FALSE,TRUE,FALSE
NA,1.25,NA,NA,NA,NA,NA,NA,NA,NA,g.PNG,g,55e49dccc70c7a000d2a57e5,2021-09-08_17h52.58.332,forced_choiceRT,2021.1.2,Win32,60.90875868,NA,NA,NA,NA,NA,NA,NA,5,Ontime,g,1,1.9524,8,0,32,1,1,NA,NA,NA,NA,NA,1952.3999999999999,351.19999999999993,2,1,g,g,0,1,309.79999999999995,g,g,1,memory,0.5,-0.5,0.35119999999999996,TRUE,TRUE,TRUE,FALSE
NA,1.37,NA,NA,NA,NA,NA,NA,NA,NA,j.PNG,j,55e49dccc70c7a000d2a57e5,2021-09-08_17h52.58.332,forced_choiceRT,2021.1.2,Win32,60.90875868,NA,NA,NA,NA,NA,NA,NA,5,Ontime,j,1,2.0357,8,3,35,3,1,NA,NA,NA,NA,NA,2035.6999999999998,332.84999999999985,2,1,j,j,0,1,807.8,h,h,1,memory,0.5,-0.5,0.33284999999999987,FALSE,FALSE,FALSE,FALSE
NA,1.04,NA,NA,NA,NA,NA,NA,NA,NA,h.PNG,h,55e49dccc70c7a000d2a57e5,2021-09-08_17h52.58.332,forced_choiceRT,2021.1.2,Win32,60.90875868,NA,NA,NA,NA,NA,NA,NA,5,Ontime,h,1,1.9064,9,1,37,2,1,NA,NA,NA,NA,NA,1906.4,433.20000000000005,2,1,h,h,1,1,292.25,h,h,1,memory,-0.5,-0.5,0.43320000000000003,TRUE,TRUE,TRUE,FALSE
NA,0.38,NA,NA,NA,NA,NA,NA,NA,NA,f.PNG,f,55e49dccc70c7a000d2a57e5,2021-09-08_17h52.58.332,forced_choiceRT,2021.1.2,Win32,60.90875868,NA,NA,NA,NA,NA,NA,NA,5,Ontime,f,1,1.9524,9,2,38,0,1,NA,NA,NA,NA,NA,1952.3999999999999,786.2,2,1,f,f,1,1,433.20000000000005,h,h,1,memory,-0.5,-0.5,0.7862,FALSE,FALSE,FALSE,FALSE
NA,1.19,NA,NA,NA,NA,NA,NA,NA,NA,f.PNG,f,55e49dccc70c7a000d2a57e5,2021-09-08_17h52.58.332,forced_choiceRT,2021.1.2,Win32,60.90875868,NA,NA,NA,NA,NA,NA,NA,5,Ontime,f,1,1.9856,9,3,39,0,1,NA,NA,NA,NA,NA,1985.6000000000001,397.80000000000007,2,1,f,f,1,1,786.2,f,f,1,memory,-0.5,-0.5,0.39780000000000004,TRUE,TRUE,TRUE,FALSE
NA,0.38,NA,NA,NA,NA,NA,NA,NA,NA,g.PNG,g,55e49dccc70c7a000d2a57e5,2021-09-08_17h52.58.332,forced_choiceRT,2021.1.2,Win32,60.90875868,NA,NA,NA,NA,NA,NA,NA,6,Ontime,g,1,2.0363,0,2,2,1,1,NA,NA,NA,NA,NA,2036.3000000000002,828.1500000000002,2,1,g,g,0,1,261.90000000000003,f,f,1,memory,0.5,-0.5,0.8281500000000002,FALSE,FALSE,FALSE,FALSE
NA,1.62,NA,NA,NA,NA,NA,NA,NA,NA,h.PNG,h,55e49dccc70c7a000d2a57e5,2021-09-08_17h52.58.332,forced_choiceRT,2021.1.2,Win32,60.90875868,NA,NA,NA,NA,NA,NA,NA,6,Ontime,j,0,1.919,0,3,3,2,1,NA,NA,NA,NA,NA,1919,149.49999999999997,2,0,j,h,1,1,828.1500000000002,g,g,0,memory,-0.5,-0.5,0.14949999999999997,FALSE,FALSE,FALSE,FALSE
NA,0.11,NA,NA,NA,NA,NA,NA,NA,NA,g.PNG,g,55e49dccc70c7a000d2a57e5,2021-09-08_17h52.58.332,forced_choiceRT,2021.1.2,Win32,60.90875868,NA,NA,NA,NA,NA,NA,NA,6,Ontime,g,1,2.0023,1,0,4,1,1,NA,NA,NA,NA,NA,2002.3,946.15,2,1,g,g,1,0,149.49999999999997,j,h,1,memory,-0.5,0.5,0.9461499999999999,FALSE,FALSE,FALSE,FALSE
NA,1.37,NA,NA,NA,NA,NA,NA,NA,NA,g.PNG,g,55e49dccc70c7a000d2a57e5,2021-09-08_17h52.58.332,forced_choiceRT,2021.1.2,Win32,60.90875868,NA,NA,NA,NA,NA,NA,NA,6,Ontime,g,1,1.9875,1,1,5,1,1,NA,NA,NA,NA,NA,1987.5,308.74999999999994,2,1,g,g,0,1,946.15,g,g,1,memory,0.5,-0.5,0.30874999999999997,TRUE,TRUE,TRUE,FALSE
NA,0.1,NA,NA,NA,NA,NA,NA,NA,NA,h.PNG,h,55e49dccc70c7a000d2a57e5,2021-09-08_17h52.58.332,forced_choiceRT,2021.1.2,Win32,60.90875868,NA,NA,NA,NA,NA,NA,NA,6,Ontime,h,1,2.003,2,0,8,2,1,NA,NA,NA,NA,NA,2003,951.5,2,1,h,h,1,1,490.69999999999993,j,j,1,memory,-0.5,-0.5,0.9515,FALSE,FALSE,FALSE,FALSE
NA,0.08,NA,NA,NA,NA,NA,NA,NA,NA,f.PNG,f,55e49dccc70c7a000d2a57e5,2021-09-08_17h52.58.332,forced_choiceRT,2021.1.2,Win32,60.90875868,NA,NA,NA,NA,NA,NA,NA,6,Ontime,f,1,2.0373,2,1,9,0,1,NA,NA,NA,NA,NA,2037.3000000000002,978.65,2,1,f,f,1,1,951.5,h,h,1,memory,-0.5,-0.5,0.97865,FALSE,FALSE,FALSE,FALSE
NA,1.1,NA,NA,NA,NA,NA,NA,NA,NA,h.PNG,h,55e49dccc70c7a000d2a57e5,2021-09-08_17h52.58.332,forced_choiceRT,2021.1.2,Win32,60.90875868,NA,NA,NA,NA,NA,NA,NA,6,Ontime,h,1,1.9426,2,2,10,2,1,NA,NA,NA,NA,NA,1942.6000000000001,421.3,2,1,h,h,1,1,978.65,f,f,1,memory,-0.5,-0.5,0.4213,FALSE,FALSE,FALSE,FALSE
NA,0.93,NA,NA,NA,NA,NA,NA,NA,NA,j.PNG,j,55e49dccc70c7a000d2a57e5,2021-09-08_17h52.58.332,forced_choiceRT,2021.1.2,Win32,60.90875868,NA,NA,NA,NA,NA,NA,NA,6,Ontime,j,1,2.0242,2,3,11,3,1,NA,NA,NA,NA,NA,2024.2,547.0999999999999,2,1,j,j,1,1,421.3,h,h,1,memory,-0.5,-0.5,0.5470999999999999,FALSE,FALSE,FALSE,FALSE
NA,0.05,NA,NA,NA,NA,NA,NA,NA,NA,h.PNG,h,55e49dccc70c7a000d2a57e5,2021-09-08_17h52.58.332,forced_choiceRT,2021.1.2,Win32,60.90875868,NA,NA,NA,NA,NA,NA,NA,6,Ontime,h,1,1.9748000000000001,3,0,12,2,1,NA,NA,NA,NA,NA,1974.8000000000002,962.4,2,1,h,h,1,1,547.0999999999999,j,j,1,memory,-0.5,-0.5,0.9623999999999999,FALSE,FALSE,FALSE,FALSE
NA,1.26,NA,NA,NA,NA,NA,NA,NA,NA,f.PNG,f,55e49dccc70c7a000d2a57e5,2021-09-08_17h52.58.332,forced_choiceRT,2021.1.2,Win32,60.90875868,NA,NA,NA,NA,NA,NA,NA,6,Ontime,f,1,1.9214,4,0,16,0,1,NA,NA,NA,NA,NA,1921.4,330.7,2,1,f,f,0,1,283.54999999999995,g,g,1,memory,0.5,-0.5,0.3307,FALSE,FALSE,FALSE,FALSE
NA,1.02,NA,NA,NA,NA,NA,NA,NA,NA,g.PNG,g,55e49dccc70c7a000d2a57e5,2021-09-08_17h52.58.332,forced_choiceRT,2021.1.2,Win32,60.90875868,NA,NA,NA,NA,NA,NA,NA,6,Ontime,g,1,1.9691,4,1,17,1,1,NA,NA,NA,NA,NA,1969.1000000000001,474.55,2,1,g,g,1,1,330.7,f,f,1,memory,-0.5,-0.5,0.47455,FALSE,FALSE,FALSE,FALSE
NA,0.99,NA,NA,NA,NA,NA,NA,NA,NA,j.PNG,j,55e49dccc70c7a000d2a57e5,2021-09-08_17h52.58.332,forced_choiceRT,2021.1.2,Win32,60.90875868,NA,NA,NA,NA,NA,NA,NA,6,Ontime,h,0,1.9091,5,1,21,3,1,NA,NA,NA,NA,NA,1909.1,459.55,2,0,h,j,1,1,247.20000000000007,f,f,0,memory,-0.5,-0.5,0.45955,FALSE,FALSE,FALSE,FALSE
NA,1.78,NA,NA,NA,NA,NA,NA,NA,NA,f.PNG,f,55e49dccc70c7a000d2a57e5,2021-09-08_17h52.58.332,forced_choiceRT,2021.1.2,Win32,60.90875868,NA,NA,NA,NA,NA,NA,NA,6,Ontime,h,0,2.0845,5,2,22,0,1,NA,NA,NA,NA,NA,2084.5,152.2499999999999,2,0,h,f,1,0,459.55,h,j,0,memory,-0.5,0.5,0.15224999999999989,TRUE,FALSE,FALSE,FALSE
NA,0.25,NA,NA,NA,NA,NA,NA,NA,NA,f.PNG,f,55e49dccc70c7a000d2a57e5,2021-09-08_17h52.58.332,forced_choiceRT,2021.1.2,Win32,60.90875868,NA,NA,NA,NA,NA,NA,NA,6,Ontime,f,1,2.0567,7,0,28,0,1,NA,NA,NA,NA,NA,2056.7000000000003,903.3500000000001,2,1,f,f,0,1,934.8,h,h,1,memory,0.5,-0.5,0.9033500000000001,FALSE,FALSE,FALSE,FALSE
NA,0.11,NA,NA,NA,NA,NA,NA,NA,NA,j.PNG,j,55e49dccc70c7a000d2a57e5,2021-09-08_17h52.58.332,forced_choiceRT,2021.1.2,Win32,60.90875868,NA,NA,NA,NA,NA,NA,NA,6,Ontime,j,1,1.9534,7,1,29,3,1,NA,NA,NA,NA,NA,1953.4,921.6999999999999,2,1,j,j,1,1,903.3500000000001,f,f,1,memory,-0.5,-0.5,0.9217,FALSE,FALSE,FALSE,FALSE
NA,0.99,NA,NA,NA,NA,NA,NA,NA,NA,j.PNG,j,55e49dccc70c7a000d2a57e5,2021-09-08_17h52.58.332,forced_choiceRT,2021.1.2,Win32,60.90875868,NA,NA,NA,NA,NA,NA,NA,6,Ontime,j,1,1.9709,7,2,30,3,1,NA,NA,NA,NA,NA,1970.9,490.45000000000005,2,1,j,j,1,1,921.6999999999999,j,j,1,memory,-0.5,-0.5,0.49045000000000005,TRUE,TRUE,TRUE,FALSE
NA,0.65,NA,NA,NA,NA,NA,NA,NA,NA,f.PNG,f,55e49dccc70c7a000d2a57e5,2021-09-08_17h52.58.332,forced_choiceRT,2021.1.2,Win32,60.90875868,NA,NA,NA,NA,NA,NA,NA,6,Ontime,f,1,1.935,7,3,31,0,1,NA,NA,NA,NA,NA,1935,642.5000000000001,2,1,f,f,1,1,490.45000000000005,j,j,1,memory,-0.5,-0.5,0.6425000000000001,FALSE,FALSE,FALSE,FALSE
NA,0.96,NA,NA,NA,NA,NA,NA,NA,NA,g.PNG,g,55e49dccc70c7a000d2a57e5,2021-09-08_17h52.58.332,forced_choiceRT,2021.1.2,Win32,60.90875868,NA,NA,NA,NA,NA,NA,NA,6,Ontime,g,1,1.9362,8,0,32,1,1,NA,NA,NA,NA,NA,1936.1999999999998,488.09999999999997,2,1,g,g,1,1,642.5000000000001,f,f,1,memory,-0.5,-0.5,0.4881,FALSE,FALSE,FALSE,FALSE
NA,0.53,NA,NA,NA,NA,NA,NA,NA,NA,h.PNG,h,55e49dccc70c7a000d2a57e5,2021-09-08_17h52.58.332,forced_choiceRT,2021.1.2,Win32,60.90875868,NA,NA,NA,NA,NA,NA,NA,6,Ontime,h,1,1.9509,8,1,33,2,1,NA,NA,NA,NA,NA,1950.9,710.45,2,1,h,h,1,1,488.09999999999997,g,g,1,memory,-0.5,-0.5,0.71045,FALSE,FALSE,FALSE,FALSE
NA,0.44,NA,NA,NA,NA,NA,NA,NA,NA,g.PNG,g,55e49dccc70c7a000d2a57e5,2021-09-08_17h52.58.332,forced_choiceRT,2021.1.2,Win32,60.90875868,NA,NA,NA,NA,NA,NA,NA,6,Ontime,g,1,2.0216,8,3,35,1,1,NA,NA,NA,NA,NA,2021.6,790.8,2,1,g,g,1,1,367.55000000000007,h,h,1,memory,-0.5,-0.5,0.7908,FALSE,FALSE,FALSE,FALSE
NA,1.36,NA,NA,NA,NA,NA,NA,NA,NA,h.PNG,h,55e49dccc70c7a000d2a57e5,2021-09-08_17h52.58.332,forced_choiceRT,2021.1.2,Win32,60.90875868,NA,NA,NA,NA,NA,NA,NA,6,Ontime,g,0,1.9532,9,1,37,2,1,NA,NA,NA,NA,NA,1953.2,296.59999999999997,2,0,g,h,1,1,51.10000000000004,f,f,0,memory,-0.5,-0.5,0.2966,FALSE,FALSE,FALSE,TRUE
NA,0.62,NA,NA,NA,NA,NA,NA,NA,NA,f.PNG,f,55e49dccc70c7a000d2a57e5,2021-09-08_17h52.58.332,forced_choiceRT,2021.1.2,Win32,60.90875868,NA,NA,NA,NA,NA,NA,NA,6,Ontime,f,1,2.0571,9,2,38,0,1,NA,NA,NA,NA,NA,2057.1000000000004,718.5500000000001,2,1,f,f,1,0,296.59999999999997,g,h,1,memory,-0.5,0.5,0.71855,FALSE,FALSE,FALSE,FALSE
NA,0.03,NA,NA,NA,NA,NA,NA,NA,NA,g.PNG,g,55e49dccc70c7a000d2a57e5,2021-09-08_17h52.58.332,forced_choiceRT,2021.1.2,Win32,60.90875868,NA,NA,NA,NA,NA,NA,NA,6,Ontime,g,1,1.9528,9,3,39,1,1,NA,NA,NA,NA,NA,1952.8000000000002,961.4,2,1,g,g,0,1,718.5500000000001,f,f,1,memory,0.5,-0.5,0.9614,FALSE,FALSE,FALSE,FALSE
NA,1.16,NA,NA,NA,NA,NA,NA,NA,NA,h.PNG,h,55e49dccc70c7a000d2a57e5,2021-09-08_17h52.58.332,forced_choiceRT,2021.1.2,Win32,60.90875868,NA,NA,NA,NA,NA,NA,NA,7,Ontime,h,1,2.0193,0,0,0,2,1,NA,NA,NA,NA,NA,2019.3,429.65,2,1,h,h,1,1,961.4,g,g,1,memory,-0.5,-0.5,0.42965,FALSE,FALSE,FALSE,FALSE
NA,1.46,NA,NA,NA,NA,NA,NA,NA,NA,g.PNG,g,55e49dccc70c7a000d2a57e5,2021-09-08_17h52.58.332,forced_choiceRT,2021.1.2,Win32,60.90875868,NA,NA,NA,NA,NA,NA,NA,7,Ontime,f,0,2.0526,0,3,3,1,1,NA,NA,NA,NA,NA,2052.6,296.3,2,0,f,g,1,1,351.6,g,g,0,memory,-0.5,-0.5,0.2963,FALSE,TRUE,TRUE,FALSE
NA,0.26,NA,NA,NA,NA,NA,NA,NA,NA,j.PNG,j,55e49dccc70c7a000d2a57e5,2021-09-08_17h52.58.332,forced_choiceRT,2021.1.2,Win32,60.90875868,NA,NA,NA,NA,NA,NA,NA,7,Ontime,j,1,2.0413,1,0,4,3,1,NA,NA,NA,NA,NA,2041.3000000000002,890.6500000000001,2,1,j,j,1,0,296.3,f,g,1,memory,-0.5,0.5,0.89065,FALSE,FALSE,FALSE,FALSE
NA,1.74,NA,NA,NA,NA,NA,NA,NA,NA,j.PNG,j,55e49dccc70c7a000d2a57e5,2021-09-08_17h52.58.332,forced_choiceRT,2021.1.2,Win32,60.90875868,NA,NA,NA,NA,NA,NA,NA,7,Ontime,h,0,1.9392,1,2,6,3,1,NA,NA,NA,NA,NA,1939.2,99.60000000000002,2,0,h,j,1,1,892.85,j,j,0,memory,-0.5,-0.5,0.09960000000000002,FALSE,TRUE,TRUE,FALSE
NA,0.09,NA,NA,NA,NA,NA,NA,NA,NA,g.PNG,g,55e49dccc70c7a000d2a57e5,2021-09-08_17h52.58.332,forced_choiceRT,2021.1.2,Win32,60.90875868,NA,NA,NA,NA,NA,NA,NA,7,Ontime,g,1,2.0356,2,0,8,1,1,NA,NA,NA,NA,NA,2035.6000000000001,972.8,2,1,g,g,0,0,35.599999999999966,f,g,1,memory,0.5,0.5,0.9728,FALSE,TRUE,FALSE,TRUE
NA,1.75,NA,NA,NA,NA,NA,NA,NA,NA,f.PNG,f,55e49dccc70c7a000d2a57e5,2021-09-08_17h52.58.332,forced_choiceRT,2021.1.2,Win32,60.90875868,NA,NA,NA,NA,NA,NA,NA,7,Ontime,g,0,2.0524,2,1,9,0,1,NA,NA,NA,NA,NA,2052.4,151.2,2,0,g,f,0,1,972.8,g,g,0,memory,0.5,-0.5,0.1512,TRUE,FALSE,FALSE,FALSE
NA,0.96,NA,NA,NA,NA,NA,NA,NA,NA,f.PNG,f,55e49dccc70c7a000d2a57e5,2021-09-08_17h52.58.332,forced_choiceRT,2021.1.2,Win32,60.90875868,NA,NA,NA,NA,NA,NA,NA,7,Ontime,f,1,2.0188,2,3,11,0,1,NA,NA,NA,NA,NA,2018.8000000000002,529.4000000000001,2,1,f,f,0,0,209.05000000000007,h,j,1,memory,0.5,0.5,0.5294000000000001,FALSE,FALSE,FALSE,FALSE
NA,0.08,NA,NA,NA,NA,NA,NA,NA,NA,f.PNG,f,55e49dccc70c7a000d2a57e5,2021-09-08_17h52.58.332,forced_choiceRT,2021.1.2,Win32,60.90875868,NA,NA,NA,NA,NA,NA,NA,7,Ontime,f,1,1.9686,3,0,12,0,1,NA,NA,NA,NA,NA,1968.6,944.3,2,1,f,f,0,1,529.4000000000001,f,f,1,memory,0.5,-0.5,0.9442999999999999,TRUE,TRUE,TRUE,FALSE
NA,1.05,NA,NA,NA,NA,NA,NA,NA,NA,h.PNG,h,55e49dccc70c7a000d2a57e5,2021-09-08_17h52.58.332,forced_choiceRT,2021.1.2,Win32,60.90875868,NA,NA,NA,NA,NA,NA,NA,7,Ontime,h,1,1.9729,3,1,13,2,1,NA,NA,NA,NA,NA,1972.9,461.45000000000005,2,1,h,h,1,1,944.3,f,f,1,memory,-0.5,-0.5,0.46145,FALSE,FALSE,FALSE,FALSE
NA,1.86,NA,NA,NA,NA,NA,NA,NA,NA,f.PNG,f,55e49dccc70c7a000d2a57e5,2021-09-08_17h52.58.332,forced_choiceRT,2021.1.2,Win32,60.90875868,NA,NA,NA,NA,NA,NA,NA,7,Ontime,g,0,2.0691,3,2,14,0,1,NA,NA,NA,NA,NA,2069.1000000000004,104.55000000000003,2,0,g,f,1,1,461.45000000000005,h,h,0,memory,-0.5,-0.5,0.10455000000000003,FALSE,FALSE,FALSE,FALSE
NA,1.1,NA,NA,NA,NA,NA,NA,NA,NA,f.PNG,f,55e49dccc70c7a000d2a57e5,2021-09-08_17h52.58.332,forced_choiceRT,2021.1.2,Win32,60.90875868,NA,NA,NA,NA,NA,NA,NA,7,Ontime,f,1,2.0034,4,0,16,0,1,NA,NA,NA,NA,NA,2003.4,451.7,2,1,f,f,0,1,1000.1500000000001,h,h,1,memory,0.5,-0.5,0.4517,FALSE,FALSE,FALSE,FALSE
NA,1.09,NA,NA,NA,NA,NA,NA,NA,NA,g.PNG,g,55e49dccc70c7a000d2a57e5,2021-09-08_17h52.58.332,forced_choiceRT,2021.1.2,Win32,60.90875868,NA,NA,NA,NA,NA,NA,NA,7,Ontime,g,1,1.9367,5,2,22,1,1,NA,NA,NA,NA,NA,1936.7,423.35,2,1,g,g,0,1,875.5999999999999,f,f,1,memory,0.5,-0.5,0.42335,FALSE,FALSE,FALSE,FALSE
NA,1.43,NA,NA,NA,NA,NA,NA,NA,NA,f.PNG,f,55e49dccc70c7a000d2a57e5,2021-09-08_17h52.58.332,forced_choiceRT,2021.1.2,Win32,60.90875868,NA,NA,NA,NA,NA,NA,NA,7,Ontime,f,1,1.958,6,0,24,0,1,NA,NA,NA,NA,NA,1958,264,2,1,f,f,1,0,-27.149999999999896,h,j,1,memory,-0.5,0.5,0.264,FALSE,FALSE,FALSE,TRUE
NA,1.8,NA,NA,NA,NA,NA,NA,NA,NA,h.PNG,h,55e49dccc70c7a000d2a57e5,2021-09-08_17h52.58.332,forced_choiceRT,2021.1.2,Win32,60.90875868,NA,NA,NA,NA,NA,NA,NA,7,Ontime,f,0,1.9516,6,1,25,2,1,NA,NA,NA,NA,NA,1951.6,75.79999999999998,2,0,f,h,0,1,264,f,f,0,memory,0.5,-0.5,0.07579999999999998,TRUE,FALSE,FALSE,FALSE
NA,1.06,NA,NA,NA,NA,NA,NA,NA,NA,f.PNG,f,55e49dccc70c7a000d2a57e5,2021-09-08_17h52.58.332,forced_choiceRT,2021.1.2,Win32,60.90875868,NA,NA,NA,NA,NA,NA,NA,7,Ontime,f,1,1.9022,6,2,26,0,1,NA,NA,NA,NA,NA,1902.1999999999998,421.0999999999999,2,1,f,f,1,0,75.79999999999998,f,h,1,memory,-0.5,0.5,0.4210999999999999,TRUE,FALSE,TRUE,TRUE
NA,1.45,NA,NA,NA,NA,NA,NA,NA,NA,h.PNG,h,55e49dccc70c7a000d2a57e5,2021-09-08_17h52.58.332,forced_choiceRT,2021.1.2,Win32,60.90875868,NA,NA,NA,NA,NA,NA,NA,7,Ontime,h,1,1.9516,7,1,29,2,1,NA,NA,NA,NA,NA,1951.6,250.8,2,1,h,h,0,0,290.0499999999999,h,j,1,memory,0.5,0.5,0.2508,TRUE,FALSE,TRUE,FALSE
NA,0.31,NA,NA,NA,NA,NA,NA,NA,NA,h.PNG,h,55e49dccc70c7a000d2a57e5,2021-09-08_17h52.58.332,forced_choiceRT,2021.1.2,Win32,60.90875868,NA,NA,NA,NA,NA,NA,NA,7,Ontime,h,1,1.9926,7,2,30,2,1,NA,NA,NA,NA,NA,1992.6,841.3,2,1,h,h,0,1,250.8,h,h,1,memory,0.5,-0.5,0.8412999999999999,TRUE,TRUE,TRUE,FALSE
NA,0.95,NA,NA,NA,NA,NA,NA,NA,NA,g.PNG,g,55e49dccc70c7a000d2a57e5,2021-09-08_17h52.58.332,forced_choiceRT,2021.1.2,Win32,60.90875868,NA,NA,NA,NA,NA,NA,NA,7,Ontime,g,1,1.9171,7,3,31,1,1,NA,NA,NA,NA,NA,1917.1000000000001,483.55,2,1,g,g,1,1,841.3,h,h,1,memory,-0.5,-0.5,0.48355000000000004,FALSE,FALSE,FALSE,FALSE
NA,0.66,NA,NA,NA,NA,NA,NA,NA,NA,f.PNG,f,55e49dccc70c7a000d2a57e5,2021-09-08_17h52.58.332,forced_choiceRT,2021.1.2,Win32,60.90875868,NA,NA,NA,NA,NA,NA,NA,7,Ontime,f,1,1.9735,8,0,32,0,1,NA,NA,NA,NA,NA,1973.5,656.75,2,1,f,f,1,1,483.55,g,g,1,memory,-0.5,-0.5,0.65675,FALSE,FALSE,FALSE,FALSE
NA,1.53,NA,NA,NA,NA,NA,NA,NA,NA,g.PNG,g,55e49dccc70c7a000d2a57e5,2021-09-08_17h52.58.332,forced_choiceRT,2021.1.2,Win32,60.90875868,NA,NA,NA,NA,NA,NA,NA,7,Ontime,f,0,2.0189,8,1,33,1,1,NA,NA,NA,NA,NA,2018.8999999999999,244.44999999999993,2,0,f,g,1,1,656.75,f,f,0,memory,-0.5,-0.5,0.24444999999999995,TRUE,FALSE,FALSE,FALSE
NA,1.84,NA,NA,NA,NA,NA,NA,NA,NA,g.PNG,g,55e49dccc70c7a000d2a57e5,2021-09-08_17h52.58.332,forced_choiceRT,2021.1.2,Win32,60.90875868,NA,NA,NA,NA,NA,NA,NA,7,Ontime,h,0,2.0694,8,2,34,1,1,NA,NA,NA,NA,NA,2069.4,114.69999999999992,2,0,h,g,1,0,244.44999999999993,f,g,0,memory,-0.5,0.5,0.11469999999999991,FALSE,TRUE,FALSE,FALSE
NA,1.88,NA,NA,NA,NA,NA,NA,NA,NA,h.PNG,h,55e49dccc70c7a000d2a57e5,2021-09-08_17h52.58.332,forced_choiceRT,2021.1.2,Win32,60.90875868,NA,NA,NA,NA,NA,NA,NA,7,Ontime,h,1,2.039,9,0,36,2,1,NA,NA,NA,NA,NA,2039.0000000000002,79.50000000000013,2,1,h,h,0,0,212.20000000000005,j,h,1,memory,0.5,0.5,0.07950000000000013,FALSE,TRUE,FALSE,FALSE
NA,0.15,NA,NA,NA,NA,NA,NA,NA,NA,g.PNG,g,55e49dccc70c7a000d2a57e5,2021-09-08_17h52.58.332,forced_choiceRT,2021.1.2,Win32,60.90875868,NA,NA,NA,NA,NA,NA,NA,7,Ontime,g,1,2.0842,9,1,37,1,1,NA,NA,NA,NA,NA,2084.2000000000003,967.1,2,1,g,g,0,1,79.50000000000013,h,h,1,memory,0.5,-0.5,0.9671000000000001,FALSE,FALSE,FALSE,TRUE
NA,0.78,NA,NA,NA,NA,NA,NA,NA,NA,j.PNG,j,55e49dccc70c7a000d2a57e5,2021-09-08_17h52.58.332,forced_choiceRT,2021.1.2,Win32,60.90875868,NA,NA,NA,NA,NA,NA,NA,8,Ontime,j,1,2.0359,0,1,1,3,1,NA,NA,NA,NA,NA,2035.8999999999999,627.9499999999999,2,1,j,j,0,1,698.6,g,g,1,memory,0.5,-0.5,0.6279499999999999,FALSE,FALSE,FALSE,FALSE
NA,1.17,NA,NA,NA,NA,NA,NA,NA,NA,f.PNG,f,55e49dccc70c7a000d2a57e5,2021-09-08_17h52.58.332,forced_choiceRT,2021.1.2,Win32,60.90875868,NA,NA,NA,NA,NA,NA,NA,8,Ontime,f,1,2.0355,0,2,2,0,1,NA,NA,NA,NA,NA,2035.4999999999998,432.74999999999994,2,1,f,f,1,1,627.9499999999999,j,j,1,memory,-0.5,-0.5,0.43274999999999997,FALSE,FALSE,FALSE,FALSE
NA,1.18,NA,NA,NA,NA,NA,NA,NA,NA,h.PNG,h,55e49dccc70c7a000d2a57e5,2021-09-08_17h52.58.332,forced_choiceRT,2021.1.2,Win32,60.90875868,NA,NA,NA,NA,NA,NA,NA,8,Ontime,h,1,1.9685,1,0,4,2,1,NA,NA,NA,NA,NA,1968.5,394.25,2,1,h,h,1,1,402.94999999999993,g,g,1,memory,-0.5,-0.5,0.39425,FALSE,FALSE,FALSE,FALSE
NA,1.14,NA,NA,NA,NA,NA,NA,NA,NA,f.PNG,f,55e49dccc70c7a000d2a57e5,2021-09-08_17h52.58.332,forced_choiceRT,2021.1.2,Win32,60.90875868,NA,NA,NA,NA,NA,NA,NA,8,Ontime,f,1,1.9673,1,1,5,0,1,NA,NA,NA,NA,NA,1967.3,413.6500000000001,2,1,f,f,1,1,394.25,h,h,1,memory,-0.5,-0.5,0.4136500000000001,FALSE,FALSE,FALSE,FALSE
NA,0.77,NA,NA,NA,NA,NA,NA,NA,NA,j.PNG,j,55e49dccc70c7a000d2a57e5,2021-09-08_17h52.58.332,forced_choiceRT,2021.1.2,Win32,60.90875868,NA,NA,NA,NA,NA,NA,NA,8,Ontime,j,1,2.0356,1,3,7,3,1,NA,NA,NA,NA,NA,2035.6000000000001,632.8000000000001,2,1,j,j,1,1,292.79999999999995,h,h,1,memory,-0.5,-0.5,0.6328,FALSE,FALSE,FALSE,FALSE
NA,0,NA,NA,NA,NA,NA,NA,NA,NA,h.PNG,h,55e49dccc70c7a000d2a57e5,2021-09-08_17h52.58.332,forced_choiceRT,2021.1.2,Win32,60.90875868,NA,NA,NA,NA,NA,NA,NA,8,Ontime,h,1,1.9718,2,0,8,2,1,NA,NA,NA,NA,NA,1971.8,985.9,2,1,h,h,1,1,632.8000000000001,j,j,1,memory,-0.5,-0.5,0.9859,FALSE,FALSE,FALSE,FALSE
NA,0.89,NA,NA,NA,NA,NA,NA,NA,NA,f.PNG,f,55e49dccc70c7a000d2a57e5,2021-09-08_17h52.58.332,forced_choiceRT,2021.1.2,Win32,60.90875868,NA,NA,NA,NA,NA,NA,NA,8,Ontime,f,1,1.991,2,1,9,0,1,NA,NA,NA,NA,NA,1991,550.5,2,1,f,f,1,1,985.9,h,h,1,memory,-0.5,-0.5,0.5505,FALSE,FALSE,FALSE,FALSE
NA,0.84,NA,NA,NA,NA,NA,NA,NA,NA,g.PNG,g,55e49dccc70c7a000d2a57e5,2021-09-08_17h52.58.332,forced_choiceRT,2021.1.2,Win32,60.90875868,NA,NA,NA,NA,NA,NA,NA,8,Ontime,g,1,2.0393,2,3,11,1,1,NA,NA,NA,NA,NA,2039.3,599.65,2,1,g,g,1,1,979,h,h,1,memory,-0.5,-0.5,0.59965,FALSE,FALSE,FALSE,FALSE
NA,0.51,NA,NA,NA,NA,NA,NA,NA,NA,g.PNG,g,55e49dccc70c7a000d2a57e5,2021-09-08_17h52.58.332,forced_choiceRT,2021.1.2,Win32,60.90875868,NA,NA,NA,NA,NA,NA,NA,8,Ontime,g,1,2.0356,3,0,12,1,1,NA,NA,NA,NA,NA,2035.6000000000001,762.8000000000001,2,1,g,g,1,1,599.65,g,g,1,memory,-0.5,-0.5,0.7628,TRUE,TRUE,TRUE,FALSE
NA,1.84,NA,NA,NA,NA,NA,NA,NA,NA,h.PNG,h,55e49dccc70c7a000d2a57e5,2021-09-08_17h52.58.332,forced_choiceRT,2021.1.2,Win32,60.90875868,NA,NA,NA,NA,NA,NA,NA,8,Ontime,f,0,1.9353,3,2,14,2,1,NA,NA,NA,NA,NA,1935.3,47.64999999999997,2,0,f,h,1,1,1050.5,h,h,0,memory,-0.5,-0.5,0.04764999999999997,FALSE,TRUE,TRUE,FALSE
NA,0.68,NA,NA,NA,NA,NA,NA,NA,NA,g.PNG,g,55e49dccc70c7a000d2a57e5,2021-09-08_17h52.58.332,forced_choiceRT,2021.1.2,Win32,60.90875868,NA,NA,NA,NA,NA,NA,NA,8,Ontime,g,1,1.9414,3,3,15,1,1,NA,NA,NA,NA,NA,1941.4,630.7,2,1,g,g,1,0,47.64999999999997,f,h,1,memory,-0.5,0.5,0.6307,FALSE,FALSE,FALSE,TRUE
NA,1.07,NA,NA,NA,NA,NA,NA,NA,NA,h.PNG,h,55e49dccc70c7a000d2a57e5,2021-09-08_17h52.58.332,forced_choiceRT,2021.1.2,Win32,60.90875868,NA,NA,NA,NA,NA,NA,NA,8,Ontime,h,1,1.952,4,0,16,2,1,NA,NA,NA,NA,NA,1952,440.99999999999994,2,1,h,h,0,1,630.7,g,g,1,memory,0.5,-0.5,0.44099999999999995,FALSE,FALSE,FALSE,FALSE
NA,0.82,NA,NA,NA,NA,NA,NA,NA,NA,f.PNG,f,55e49dccc70c7a000d2a57e5,2021-09-08_17h52.58.332,forced_choiceRT,2021.1.2,Win32,60.90875868,NA,NA,NA,NA,NA,NA,NA,8,Ontime,f,1,2.0724,4,1,17,0,1,NA,NA,NA,NA,NA,2072.4,626.2,2,1,f,f,1,1,440.99999999999994,h,h,1,memory,-0.5,-0.5,0.6262000000000001,FALSE,FALSE,FALSE,FALSE
NA,1.41,NA,NA,NA,NA,NA,NA,NA,NA,j.PNG,j,55e49dccc70c7a000d2a57e5,2021-09-08_17h52.58.332,forced_choiceRT,2021.1.2,Win32,60.90875868,NA,NA,NA,NA,NA,NA,NA,8,Ontime,h,0,1.9404,4,2,18,3,1,NA,NA,NA,NA,NA,1940.3999999999999,265.2,2,0,h,j,1,1,626.2,f,f,0,memory,-0.5,-0.5,0.2652,FALSE,FALSE,FALSE,FALSE
NA,1.68,NA,NA,NA,NA,NA,NA,NA,NA,f.PNG,f,55e49dccc70c7a000d2a57e5,2021-09-08_17h52.58.332,forced_choiceRT,2021.1.2,Win32,60.90875868,NA,NA,NA,NA,NA,NA,NA,8,Ontime,f,1,2.0379,4,3,19,0,1,NA,NA,NA,NA,NA,2037.9,178.95000000000005,2,1,f,f,1,0,265.2,h,j,1,memory,-0.5,0.5,0.17895000000000005,FALSE,FALSE,FALSE,FALSE
NA,1.79,NA,NA,NA,NA,NA,NA,NA,NA,h.PNG,h,55e49dccc70c7a000d2a57e5,2021-09-08_17h52.58.332,forced_choiceRT,2021.1.2,Win32,60.90875868,NA,NA,NA,NA,NA,NA,NA,8,Ontime,f,0,2.093,5,0,20,2,1,NA,NA,NA,NA,NA,2093,151.49999999999997,2,0,f,h,0,1,178.95000000000005,f,f,0,memory,0.5,-0.5,0.15149999999999997,TRUE,FALSE,FALSE,FALSE
NA,1.74,NA,NA,NA,NA,NA,NA,NA,NA,j.PNG,j,55e49dccc70c7a000d2a57e5,2021-09-08_17h52.58.332,forced_choiceRT,2021.1.2,Win32,60.90875868,NA,NA,NA,NA,NA,NA,NA,8,Ontime,h,0,1.9353,5,1,21,3,1,NA,NA,NA,NA,NA,1935.3,97.65000000000002,2,0,h,j,1,0,151.49999999999997,f,h,0,memory,-0.5,0.5,0.09765000000000001,FALSE,FALSE,FALSE,FALSE
NA,0.93,NA,NA,NA,NA,NA,NA,NA,NA,h.PNG,h,55e49dccc70c7a000d2a57e5,2021-09-08_17h52.58.332,forced_choiceRT,2021.1.2,Win32,60.90875868,NA,NA,NA,NA,NA,NA,NA,8,Ontime,h,1,1.9523,5,3,23,2,1,NA,NA,NA,NA,NA,1952.3,511.15,2,1,h,h,0,1,773.8499999999999,g,g,1,memory,0.5,-0.5,0.51115,FALSE,FALSE,FALSE,FALSE
NA,0.66,NA,NA,NA,NA,NA,NA,NA,NA,j.PNG,j,55e49dccc70c7a000d2a57e5,2021-09-08_17h52.58.332,forced_choiceRT,2021.1.2,Win32,60.90875868,NA,NA,NA,NA,NA,NA,NA,8,Ontime,j,1,1.9692,6,2,26,3,1,NA,NA,NA,NA,NA,1969.2,654.6,2,1,j,j,1,1,801.0500000000001,f,f,1,memory,-0.5,-0.5,0.6546000000000001,FALSE,FALSE,FALSE,FALSE
NA,1.43,NA,NA,NA,NA,NA,NA,NA,NA,j.PNG,j,55e49dccc70c7a000d2a57e5,2021-09-08_17h52.58.332,forced_choiceRT,2021.1.2,Win32,60.90875868,NA,NA,NA,NA,NA,NA,NA,8,Ontime,j,1,1.9856,7,0,28,3,1,NA,NA,NA,NA,NA,1985.6000000000001,277.80000000000007,2,1,j,j,1,0,282.34999999999997,h,g,1,memory,-0.5,0.5,0.27780000000000005,FALSE,FALSE,FALSE,FALSE
NA,0.85,NA,NA,NA,NA,NA,NA,NA,NA,g.PNG,g,55e49dccc70c7a000d2a57e5,2021-09-08_17h52.58.332,forced_choiceRT,2021.1.2,Win32,60.90875868,NA,NA,NA,NA,NA,NA,NA,8,Ontime,g,1,1.9186,7,1,29,1,1,NA,NA,NA,NA,NA,1918.6000000000001,534.3,2,1,g,g,0,1,277.80000000000007,j,j,1,memory,0.5,-0.5,0.5343,FALSE,FALSE,FALSE,FALSE
NA,0.28,NA,NA,NA,NA,NA,NA,NA,NA,f.PNG,f,55e49dccc70c7a000d2a57e5,2021-09-08_17h52.58.332,forced_choiceRT,2021.1.2,Win32,60.90875868,NA,NA,NA,NA,NA,NA,NA,8,Ontime,f,1,2.0577,7,2,30,0,1,NA,NA,NA,NA,NA,2057.7000000000003,888.85,2,1,f,f,1,1,534.3,g,g,1,memory,-0.5,-0.5,0.88885,FALSE,FALSE,FALSE,FALSE
NA,1.28,NA,NA,NA,NA,NA,NA,NA,NA,j.PNG,j,55e49dccc70c7a000d2a57e5,2021-09-08_17h52.58.332,forced_choiceRT,2021.1.2,Win32,60.90875868,NA,NA,NA,NA,NA,NA,NA,8,Ontime,j,1,1.9858,7,3,31,3,1,NA,NA,NA,NA,NA,1985.8,352.9,2,1,j,j,1,1,888.85,f,f,1,memory,-0.5,-0.5,0.3529,FALSE,FALSE,FALSE,FALSE
NA,0.67,NA,NA,NA,NA,NA,NA,NA,NA,j.PNG,j,55e49dccc70c7a000d2a57e5,2021-09-08_17h52.58.332,forced_choiceRT,2021.1.2,Win32,60.90875868,NA,NA,NA,NA,NA,NA,NA,8,Ontime,j,1,2.0556,8,2,34,3,1,NA,NA,NA,NA,NA,2055.6,692.8000000000001,2,1,j,j,1,1,447.6,j,j,1,memory,-0.5,-0.5,0.6928000000000001,TRUE,TRUE,TRUE,FALSE
NA,1.78,NA,NA,NA,NA,NA,NA,NA,NA,g.PNG,g,55e49dccc70c7a000d2a57e5,2021-09-08_17h52.58.332,forced_choiceRT,2021.1.2,Win32,60.90875868,NA,NA,NA,NA,NA,NA,NA,8,Ontime,f,0,2.0352,8,3,35,1,1,NA,NA,NA,NA,NA,2035.2,127.60000000000005,2,0,f,g,1,1,692.8000000000001,j,j,0,memory,-0.5,-0.5,0.12760000000000005,FALSE,FALSE,FALSE,FALSE
NA,1.72,NA,NA,NA,NA,NA,NA,NA,NA,f.PNG,f,55e49dccc70c7a000d2a57e5,2021-09-08_17h52.58.332,forced_choiceRT,2021.1.2,Win32,60.90875868,NA,NA,NA,NA,NA,NA,NA,8,Ontime,h,0,1.9525,9,0,36,0,1,NA,NA,NA,NA,NA,1952.5,116.24999999999997,2,0,h,f,1,0,127.60000000000005,f,g,0,memory,-0.5,0.5,0.11624999999999998,FALSE,FALSE,TRUE,FALSE
NA,1.39,NA,NA,NA,NA,NA,NA,NA,NA,f.PNG,f,55e49dccc70c7a000d2a57e5,2021-09-08_17h52.58.332,forced_choiceRT,2021.1.2,Win32,60.90875868,NA,NA,NA,NA,NA,NA,NA,8,Ontime,f,1,2.07,9,2,38,0,1,NA,NA,NA,NA,NA,2070,339.99999999999994,2,1,f,f,0,1,847.75,h,h,1,memory,0.5,-0.5,0.33999999999999997,FALSE,FALSE,FALSE,FALSE
NA,0.09,NA,NA,NA,NA,NA,NA,NA,NA,g.PNG,g,55e49dccc70c7a000d2a57e5,2021-09-08_17h52.58.332,forced_choiceRT,2021.1.2,Win32,60.90875868,NA,NA,NA,NA,NA,NA,NA,9,Ontime,g,1,1.9595,0,1,1,1,1,NA,NA,NA,NA,NA,1959.5,934.75,2,1,g,g,1,1,456.9000000000001,h,h,1,memory,-0.5,-0.5,0.93475,FALSE,FALSE,FALSE,FALSE
NA,0.1,NA,NA,NA,NA,NA,NA,NA,NA,f.PNG,f,55e49dccc70c7a000d2a57e5,2021-09-08_17h52.58.332,forced_choiceRT,2021.1.2,Win32,60.90875868,NA,NA,NA,NA,NA,NA,NA,9,Ontime,f,1,1.9594,0,3,3,0,1,NA,NA,NA,NA,NA,1959.4,929.6999999999999,2,1,f,f,1,1,347.59999999999997,g,g,1,memory,-0.5,-0.5,0.9297,FALSE,FALSE,FALSE,FALSE
NA,0.47,NA,NA,NA,NA,NA,NA,NA,NA,h.PNG,h,55e49dccc70c7a000d2a57e5,2021-09-08_17h52.58.332,forced_choiceRT,2021.1.2,Win32,60.90875868,NA,NA,NA,NA,NA,NA,NA,9,Ontime,h,1,2.0086,1,0,4,2,1,NA,NA,NA,NA,NA,2008.6,769.3,2,1,h,h,1,1,929.6999999999999,f,f,1,memory,-0.5,-0.5,0.7693,FALSE,FALSE,FALSE,FALSE
NA,1.79,NA,NA,NA,NA,NA,NA,NA,NA,h.PNG,h,55e49dccc70c7a000d2a57e5,2021-09-08_17h52.58.332,forced_choiceRT,2021.1.2,Win32,60.90875868,NA,NA,NA,NA,NA,NA,NA,9,Ontime,f,0,2.0524,1,2,6,2,1,NA,NA,NA,NA,NA,2052.4,131.2,2,0,f,h,1,1,375.54999999999995,j,j,0,memory,-0.5,-0.5,0.13119999999999998,FALSE,FALSE,FALSE,FALSE
NA,1.66,NA,NA,NA,NA,NA,NA,NA,NA,f.PNG,f,55e49dccc70c7a000d2a57e5,2021-09-08_17h52.58.332,forced_choiceRT,2021.1.2,Win32,60.90875868,NA,NA,NA,NA,NA,NA,NA,9,Ontime,h,0,1.9195,1,3,7,0,1,NA,NA,NA,NA,NA,1919.5,129.75000000000003,2,0,h,f,1,0,131.2,f,h,0,memory,-0.5,0.5,0.12975000000000003,FALSE,FALSE,TRUE,FALSE
NA,0.43,NA,NA,NA,NA,NA,NA,NA,NA,f.PNG,f,55e49dccc70c7a000d2a57e5,2021-09-08_17h52.58.332,forced_choiceRT,2021.1.2,Win32,60.90875868,NA,NA,NA,NA,NA,NA,NA,9,Ontime,f,1,1.9911,2,1,9,0,1,NA,NA,NA,NA,NA,1991.1000000000001,780.5500000000001,2,1,f,f,0,1,702.7,f,f,1,memory,0.5,-0.5,0.7805500000000001,TRUE,TRUE,TRUE,FALSE
NA,0.85,NA,NA,NA,NA,NA,NA,NA,NA,f.PNG,f,55e49dccc70c7a000d2a57e5,2021-09-08_17h52.58.332,forced_choiceRT,2021.1.2,Win32,60.90875868,NA,NA,NA,NA,NA,NA,NA,9,Ontime,f,1,1.908,3,0,12,0,1,NA,NA,NA,NA,NA,1908,528.9999999999999,2,1,f,f,1,1,792.0500000000001,g,g,1,memory,-0.5,-0.5,0.5289999999999999,FALSE,FALSE,FALSE,FALSE
NA,1.27,NA,NA,NA,NA,NA,NA,NA,NA,g.PNG,g,55e49dccc70c7a000d2a57e5,2021-09-08_17h52.58.332,forced_choiceRT,2021.1.2,Win32,60.90875868,NA,NA,NA,NA,NA,NA,NA,9,Ontime,g,1,1.9852,3,1,13,1,1,NA,NA,NA,NA,NA,1985.2,357.6,2,1,g,g,1,1,528.9999999999999,f,f,1,memory,-0.5,-0.5,0.35760000000000003,FALSE,FALSE,FALSE,FALSE
NA,0.86,NA,NA,NA,NA,NA,NA,NA,NA,g.PNG,g,55e49dccc70c7a000d2a57e5,2021-09-08_17h52.58.332,forced_choiceRT,2021.1.2,Win32,60.90875868,NA,NA,NA,NA,NA,NA,NA,9,Ontime,g,1,1.9528,3,2,14,1,1,NA,NA,NA,NA,NA,1952.8000000000002,546.4,2,1,g,g,1,1,357.6,g,g,1,memory,-0.5,-0.5,0.5464,TRUE,TRUE,TRUE,FALSE
NA,1.07,NA,NA,NA,NA,NA,NA,NA,NA,j.PNG,j,55e49dccc70c7a000d2a57e5,2021-09-08_17h52.58.332,forced_choiceRT,2021.1.2,Win32,60.90875868,NA,NA,NA,NA,NA,NA,NA,9,Ontime,j,1,1.9865,3,3,15,3,1,NA,NA,NA,NA,NA,1986.5,458.24999999999994,2,1,j,j,1,1,546.4,g,g,1,memory,-0.5,-0.5,0.45824999999999994,FALSE,FALSE,FALSE,FALSE
NA,0.15,NA,NA,NA,NA,NA,NA,NA,NA,f.PNG,f,55e49dccc70c7a000d2a57e5,2021-09-08_17h52.58.332,forced_choiceRT,2021.1.2,Win32,60.90875868,NA,NA,NA,NA,NA,NA,NA,9,Ontime,f,1,2.0022,4,0,16,0,1,NA,NA,NA,NA,NA,2002.2000000000003,926.1000000000001,2,1,f,f,1,1,458.24999999999994,j,j,1,memory,-0.5,-0.5,0.9261000000000001,FALSE,FALSE,FALSE,FALSE
NA,1.57,NA,NA,NA,NA,NA,NA,NA,NA,j.PNG,j,55e49dccc70c7a000d2a57e5,2021-09-08_17h52.58.332,forced_choiceRT,2021.1.2,Win32,60.90875868,NA,NA,NA,NA,NA,NA,NA,9,Ontime,j,1,2.0845,4,1,17,3,1,NA,NA,NA,NA,NA,2084.5,257.2499999999999,2,1,j,j,1,1,926.1000000000001,f,f,1,memory,-0.5,-0.5,0.25724999999999987,FALSE,FALSE,FALSE,FALSE
NA,0.27,NA,NA,NA,NA,NA,NA,NA,NA,h.PNG,h,55e49dccc70c7a000d2a57e5,2021-09-08_17h52.58.332,forced_choiceRT,2021.1.2,Win32,60.90875868,NA,NA,NA,NA,NA,NA,NA,9,Ontime,h,1,1.9187,4,2,18,2,1,NA,NA,NA,NA,NA,1918.7,824.35,2,1,h,h,1,1,257.2499999999999,j,j,1,memory,-0.5,-0.5,0.82435,FALSE,FALSE,FALSE,FALSE
NA,1.2,NA,NA,NA,NA,NA,NA,NA,NA,g.PNG,g,55e49dccc70c7a000d2a57e5,2021-09-08_17h52.58.332,forced_choiceRT,2021.1.2,Win32,60.90875868,NA,NA,NA,NA,NA,NA,NA,9,Ontime,g,1,2.0846,4,3,19,1,1,NA,NA,NA,NA,NA,2084.6,442.3,2,1,g,g,1,1,824.35,h,h,1,memory,-0.5,-0.5,0.4423,FALSE,FALSE,FALSE,FALSE
NA,0.25,NA,NA,NA,NA,NA,NA,NA,NA,j.PNG,j,55e49dccc70c7a000d2a57e5,2021-09-08_17h52.58.332,forced_choiceRT,2021.1.2,Win32,60.90875868,NA,NA,NA,NA,NA,NA,NA,9,Ontime,j,1,1.9696,5,0,20,3,1,NA,NA,NA,NA,NA,1969.6,859.8,2,1,j,j,1,1,442.3,g,g,1,memory,-0.5,-0.5,0.8598,FALSE,FALSE,FALSE,FALSE
NA,0.18,NA,NA,NA,NA,NA,NA,NA,NA,h.PNG,h,55e49dccc70c7a000d2a57e5,2021-09-08_17h52.58.332,forced_choiceRT,2021.1.2,Win32,60.90875868,NA,NA,NA,NA,NA,NA,NA,9,Ontime,h,1,2.0216,5,1,21,2,1,NA,NA,NA,NA,NA,2021.6,920.8,2,1,h,h,1,1,859.8,j,j,1,memory,-0.5,-0.5,0.9208,FALSE,FALSE,FALSE,FALSE
NA,0.86,NA,NA,NA,NA,NA,NA,NA,NA,j.PNG,j,55e49dccc70c7a000d2a57e5,2021-09-08_17h52.58.332,forced_choiceRT,2021.1.2,Win32,60.90875868,NA,NA,NA,NA,NA,NA,NA,9,Ontime,j,1,1.9187,5,2,22,3,1,NA,NA,NA,NA,NA,1918.7,529.35,2,1,j,j,1,1,920.8,h,h,1,memory,-0.5,-0.5,0.52935,FALSE,FALSE,FALSE,FALSE
NA,0.65,NA,NA,NA,NA,NA,NA,NA,NA,j.PNG,j,55e49dccc70c7a000d2a57e5,2021-09-08_17h52.58.332,forced_choiceRT,2021.1.2,Win32,60.90875868,NA,NA,NA,NA,NA,NA,NA,9,Ontime,j,1,2.0368,5,3,23,3,1,NA,NA,NA,NA,NA,2036.8,693.4,2,1,j,j,1,1,529.35,j,j,1,memory,-0.5,-0.5,0.6934,TRUE,TRUE,TRUE,FALSE
NA,1.24,NA,NA,NA,NA,NA,NA,NA,NA,h.PNG,h,55e49dccc70c7a000d2a57e5,2021-09-08_17h52.58.332,forced_choiceRT,2021.1.2,Win32,60.90875868,NA,NA,NA,NA,NA,NA,NA,9,Ontime,h,1,1.9354,6,0,24,2,1,NA,NA,NA,NA,NA,1935.4,347.7,2,1,h,h,1,1,693.4,j,j,1,memory,-0.5,-0.5,0.3477,FALSE,FALSE,FALSE,FALSE
NA,1,NA,NA,NA,NA,NA,NA,NA,NA,g.PNG,g,55e49dccc70c7a000d2a57e5,2021-09-08_17h52.58.332,forced_choiceRT,2021.1.2,Win32,60.90875868,NA,NA,NA,NA,NA,NA,NA,9,Ontime,g,1,2.0187,6,1,25,1,1,NA,NA,NA,NA,NA,2018.7,509.34999999999997,2,1,g,g,1,1,347.7,h,h,1,memory,-0.5,-0.5,0.50935,FALSE,FALSE,FALSE,FALSE
NA,0.89,NA,NA,NA,NA,NA,NA,NA,NA,h.PNG,h,55e49dccc70c7a000d2a57e5,2021-09-08_17h52.58.332,forced_choiceRT,2021.1.2,Win32,60.90875868,NA,NA,NA,NA,NA,NA,NA,9,Ontime,h,1,1.9095,6,2,26,2,1,NA,NA,NA,NA,NA,1909.5,509.74999999999994,2,1,h,h,1,1,509.34999999999997,g,g,1,memory,-0.5,-0.5,0.5097499999999999,FALSE,FALSE,FALSE,FALSE
NA,1.21,NA,NA,NA,NA,NA,NA,NA,NA,j.PNG,j,55e49dccc70c7a000d2a57e5,2021-09-08_17h52.58.332,forced_choiceRT,2021.1.2,Win32,60.90875868,NA,NA,NA,NA,NA,NA,NA,9,Ontime,j,1,2.0358,6,3,27,3,1,NA,NA,NA,NA,NA,2035.8,412.90000000000003,2,1,j,j,1,1,509.74999999999994,h,h,1,memory,-0.5,-0.5,0.41290000000000004,FALSE,FALSE,FALSE,FALSE
NA,0.06,NA,NA,NA,NA,NA,NA,NA,NA,g.PNG,g,55e49dccc70c7a000d2a57e5,2021-09-08_17h52.58.332,forced_choiceRT,2021.1.2,Win32,60.90875868,NA,NA,NA,NA,NA,NA,NA,9,Ontime,g,1,1.9537,7,1,29,1,1,NA,NA,NA,NA,NA,1953.7,946.85,2,1,g,g,1,1,1083.6999999999998,j,j,1,memory,-0.5,-0.5,0.94685,FALSE,FALSE,FALSE,FALSE
NA,0.53,NA,NA,NA,NA,NA,NA,NA,NA,h.PNG,h,55e49dccc70c7a000d2a57e5,2021-09-08_17h52.58.332,forced_choiceRT,2021.1.2,Win32,60.90875868,NA,NA,NA,NA,NA,NA,NA,9,Ontime,h,1,2.0198,7,2,30,2,1,NA,NA,NA,NA,NA,2019.8,744.9,2,1,h,h,1,1,946.85,g,g,1,memory,-0.5,-0.5,0.7449,FALSE,FALSE,FALSE,FALSE
NA,0.19,NA,NA,NA,NA,NA,NA,NA,NA,f.PNG,f,55e49dccc70c7a000d2a57e5,2021-09-08_17h52.58.332,forced_choiceRT,2021.1.2,Win32,60.90875868,NA,NA,NA,NA,NA,NA,NA,9,Ontime,f,1,1.9688,7,3,31,0,1,NA,NA,NA,NA,NA,1968.8000000000002,889.4000000000001,2,1,f,f,1,1,744.9,h,h,1,memory,-0.5,-0.5,0.8894000000000001,FALSE,FALSE,FALSE,FALSE
NA,1.69,NA,NA,NA,NA,NA,NA,NA,NA,h.PNG,h,55e49dccc70c7a000d2a57e5,2021-09-08_17h52.58.332,forced_choiceRT,2021.1.2,Win32,60.90875868,NA,NA,NA,NA,NA,NA,NA,9,Ontime,h,1,2.0254,9,0,36,2,1,NA,NA,NA,NA,NA,2025.3999999999999,167.69999999999996,2,1,h,h,1,1,897.95,g,g,1,memory,-0.5,-0.5,0.16769999999999996,FALSE,FALSE,FALSE,FALSE
NA,0.42,NA,NA,NA,NA,NA,NA,NA,NA,h.PNG,h,55e49dccc70c7a000d2a57e5,2021-09-08_17h52.58.332,forced_choiceRT,2021.1.2,Win32,60.90875868,NA,NA,NA,NA,NA,NA,NA,9,Ontime,h,1,1.9658,9,1,37,2,1,NA,NA,NA,NA,NA,1965.8,772.9,2,1,h,h,1,1,167.69999999999996,h,h,1,memory,-0.5,-0.5,0.7729,TRUE,TRUE,TRUE,FALSE
NA,1.83,NA,NA,NA,NA,NA,NA,NA,NA,f.PNG,f,55e49dccc70c7a000d2a57e5,2021-09-08_17h52.58.332,forced_choiceRT,2021.1.2,Win32,60.90875868,NA,NA,NA,NA,NA,NA,NA,9,Ontime,f,1,1.9568,9,2,38,0,1,NA,NA,NA,NA,NA,1956.8000000000002,63.40000000000001,2,1,f,f,1,1,772.9,h,h,1,memory,-0.5,-0.5,0.06340000000000001,FALSE,FALSE,FALSE,FALSE
NA,1.75,NA,NA,NA,NA,NA,NA,NA,NA,f.PNG,f,55e49dccc70c7a000d2a57e5,2021-09-08_17h52.58.332,forced_choiceRT,2021.1.2,Win32,60.90875868,NA,NA,NA,NA,NA,NA,NA,9,Ontime,h,0,2.0026,9,3,39,0,1,NA,NA,NA,NA,NA,2002.6000000000001,126.30000000000008,2,0,h,f,1,1,63.40000000000001,f,f,0,memory,-0.5,-0.5,0.12630000000000008,FALSE,TRUE,TRUE,TRUE
NA,0,NA,NA,NA,NA,NA,NA,NA,NA,h.PNG,h,55e49dccc70c7a000d2a57e5,2021-09-08_17h52.58.332,forced_choiceRT,2021.1.2,Win32,60.90875868,NA,NA,NA,NA,NA,NA,NA,10,Ontime,h,1,1.953,1,0,4,2,1,NA,NA,NA,NA,NA,1953,976.5,2,1,h,h,0,0,196.00000000000006,h,f,1,memory,0.5,0.5,0.9765,TRUE,FALSE,TRUE,FALSE
NA,1.41,NA,NA,NA,NA,NA,NA,NA,NA,f.PNG,f,55e49dccc70c7a000d2a57e5,2021-09-08_17h52.58.332,forced_choiceRT,2021.1.2,Win32,60.90875868,NA,NA,NA,NA,NA,NA,NA,10,Ontime,f,1,1.9525,1,1,5,0,1,NA,NA,NA,NA,NA,1952.5,271.25,2,1,f,f,0,1,976.5,h,h,1,memory,0.5,-0.5,0.27125,FALSE,FALSE,FALSE,FALSE
NA,1.05,NA,NA,NA,NA,NA,NA,NA,NA,g.PNG,g,55e49dccc70c7a000d2a57e5,2021-09-08_17h52.58.332,forced_choiceRT,2021.1.2,Win32,60.90875868,NA,NA,NA,NA,NA,NA,NA,10,Ontime,g,1,1.9693,1,2,6,1,1,NA,NA,NA,NA,NA,1969.3,459.65,2,1,g,g,1,1,271.25,f,f,1,memory,-0.5,-0.5,0.45965,FALSE,FALSE,FALSE,FALSE
NA,1.69,NA,NA,NA,NA,NA,NA,NA,NA,g.PNG,g,55e49dccc70c7a000d2a57e5,2021-09-08_17h52.58.332,forced_choiceRT,2021.1.2,Win32,60.90875868,NA,NA,NA,NA,NA,NA,NA,10,Ontime,g,1,1.9194,1,3,7,1,1,NA,NA,NA,NA,NA,1919.4,114.70000000000002,2,1,g,g,1,1,459.65,g,g,1,memory,-0.5,-0.5,0.11470000000000001,TRUE,TRUE,TRUE,FALSE
NA,1.98,NA,NA,NA,NA,NA,NA,NA,NA,f.PNG,f,55e49dccc70c7a000d2a57e5,2021-09-08_17h52.58.332,forced_choiceRT,2021.1.2,Win32,60.90875868,NA,NA,NA,NA,NA,NA,NA,10,Ontime,f,1,2.0354,2,0,8,0,1,NA,NA,NA,NA,NA,2035.4,27.70000000000006,2,1,f,f,1,1,114.70000000000002,g,g,1,memory,-0.5,-0.5,0.02770000000000006,FALSE,FALSE,FALSE,FALSE
NA,1.9,NA,NA,NA,NA,NA,NA,NA,NA,j.PNG,j,55e49dccc70c7a000d2a57e5,2021-09-08_17h52.58.332,forced_choiceRT,2021.1.2,Win32,60.90875868,NA,NA,NA,NA,NA,NA,NA,10,Ontime,f,0,2.071,2,1,9,3,1,NA,NA,NA,NA,NA,2071,85.50000000000013,2,0,f,j,1,1,27.70000000000006,f,f,0,memory,-0.5,-0.5,0.08550000000000013,TRUE,FALSE,FALSE,TRUE
NA,0.75,NA,NA,NA,NA,NA,NA,NA,NA,j.PNG,j,55e49dccc70c7a000d2a57e5,2021-09-08_17h52.58.332,forced_choiceRT,2021.1.2,Win32,60.90875868,NA,NA,NA,NA,NA,NA,NA,10,Ontime,j,1,1.9861,2,2,10,3,1,NA,NA,NA,NA,NA,1986.1,618.05,2,1,j,j,1,0,85.50000000000013,f,j,1,memory,-0.5,0.5,0.61805,FALSE,TRUE,FALSE,TRUE
NA,0.98,NA,NA,NA,NA,NA,NA,NA,NA,j.PNG,j,55e49dccc70c7a000d2a57e5,2021-09-08_17h52.58.332,forced_choiceRT,2021.1.2,Win32,60.90875868,NA,NA,NA,NA,NA,NA,NA,10,Ontime,j,1,1.9398,2,3,11,3,1,NA,NA,NA,NA,NA,1939.8,479.9,2,1,j,j,0,1,618.05,j,j,1,memory,0.5,-0.5,0.4799,TRUE,TRUE,TRUE,FALSE
NA,1.59,NA,NA,NA,NA,NA,NA,NA,NA,f.PNG,f,55e49dccc70c7a000d2a57e5,2021-09-08_17h52.58.332,forced_choiceRT,2021.1.2,Win32,60.90875868,NA,NA,NA,NA,NA,NA,NA,10,Ontime,h,0,1.9065,3,0,12,0,1,NA,NA,NA,NA,NA,1906.5,158.25,2,0,h,f,1,1,479.9,j,j,0,memory,-0.5,-0.5,0.15825,FALSE,FALSE,FALSE,FALSE
NA,0.07,NA,NA,NA,NA,NA,NA,NA,NA,h.PNG,h,55e49dccc70c7a000d2a57e5,2021-09-08_17h52.58.332,forced_choiceRT,2021.1.2,Win32,60.90875868,NA,NA,NA,NA,NA,NA,NA,10,Ontime,h,1,1.9355,3,1,13,2,1,NA,NA,NA,NA,NA,1935.5,932.75,2,1,h,h,1,0,158.25,h,f,1,memory,-0.5,0.5,0.93275,TRUE,FALSE,TRUE,FALSE
NA,0.41,NA,NA,NA,NA,NA,NA,NA,NA,j.PNG,j,55e49dccc70c7a000d2a57e5,2021-09-08_17h52.58.332,forced_choiceRT,2021.1.2,Win32,60.90875868,NA,NA,NA,NA,NA,NA,NA,10,Ontime,j,1,2.0038,3,2,14,3,1,NA,NA,NA,NA,NA,2003.8,796.9000000000001,2,1,j,j,0,1,932.75,h,h,1,memory,0.5,-0.5,0.7969,FALSE,FALSE,FALSE,FALSE
NA,0.96,NA,NA,NA,NA,NA,NA,NA,NA,g.PNG,g,55e49dccc70c7a000d2a57e5,2021-09-08_17h52.58.332,forced_choiceRT,2021.1.2,Win32,60.90875868,NA,NA,NA,NA,NA,NA,NA,10,Ontime,g,1,2.0897,3,3,15,1,1,NA,NA,NA,NA,NA,2089.7000000000003,564.85,2,1,g,g,1,1,796.9000000000001,j,j,1,memory,-0.5,-0.5,0.5648500000000001,FALSE,FALSE,FALSE,FALSE
NA,0.93,NA,NA,NA,NA,NA,NA,NA,NA,j.PNG,j,55e49dccc70c7a000d2a57e5,2021-09-08_17h52.58.332,forced_choiceRT,2021.1.2,Win32,60.90875868,NA,NA,NA,NA,NA,NA,NA,10,Ontime,j,1,2.0549,4,0,16,3,1,NA,NA,NA,NA,NA,2054.9,562.4499999999999,2,1,j,j,1,1,564.85,g,g,1,memory,-0.5,-0.5,0.5624499999999999,FALSE,FALSE,FALSE,FALSE
NA,0.18,NA,NA,NA,NA,NA,NA,NA,NA,h.PNG,h,55e49dccc70c7a000d2a57e5,2021-09-08_17h52.58.332,forced_choiceRT,2021.1.2,Win32,60.90875868,NA,NA,NA,NA,NA,NA,NA,10,Ontime,h,1,2.0022,4,2,18,2,1,NA,NA,NA,NA,NA,2002.2000000000003,911.1000000000001,2,1,h,h,1,1,349.50000000000006,g,g,1,memory,-0.5,-0.5,0.9111000000000001,FALSE,FALSE,FALSE,FALSE
NA,0.48,NA,NA,NA,NA,NA,NA,NA,NA,h.PNG,h,55e49dccc70c7a000d2a57e5,2021-09-08_17h52.58.332,forced_choiceRT,2021.1.2,Win32,60.90875868,NA,NA,NA,NA,NA,NA,NA,10,Ontime,h,1,2.0024,5,0,20,2,1,NA,NA,NA,NA,NA,2002.4,761.2,2,1,h,h,1,0,228.7500000000001,j,h,1,memory,-0.5,0.5,0.7612000000000001,FALSE,TRUE,FALSE,FALSE
NA,0.11,NA,NA,NA,NA,NA,NA,NA,NA,g.PNG,g,55e49dccc70c7a000d2a57e5,2021-09-08_17h52.58.332,forced_choiceRT,2021.1.2,Win32,60.90875868,NA,NA,NA,NA,NA,NA,NA,10,Ontime,g,1,1.972,5,1,21,1,1,NA,NA,NA,NA,NA,1972,930.9999999999999,2,1,g,g,0,1,761.2,h,h,1,memory,0.5,-0.5,0.9309999999999999,FALSE,FALSE,FALSE,FALSE
NA,1.9,NA,NA,NA,NA,NA,NA,NA,NA,g.PNG,g,55e49dccc70c7a000d2a57e5,2021-09-08_17h52.58.332,forced_choiceRT,2021.1.2,Win32,60.90875868,NA,NA,NA,NA,NA,NA,NA,10,Ontime,g,1,2.0421,5,2,22,1,1,NA,NA,NA,NA,NA,2042.1000000000001,71.05000000000005,2,1,g,g,1,1,930.9999999999999,g,g,1,memory,-0.5,-0.5,0.07105000000000006,TRUE,TRUE,TRUE,FALSE
NA,0.8,NA,NA,NA,NA,NA,NA,NA,NA,g.PNG,g,55e49dccc70c7a000d2a57e5,2021-09-08_17h52.58.332,forced_choiceRT,2021.1.2,Win32,60.90875868,NA,NA,NA,NA,NA,NA,NA,10,Ontime,g,1,1.9057,6,0,24,1,1,NA,NA,NA,NA,NA,1905.7,552.8499999999999,2,1,g,g,1,0,62.699999999999974,h,j,1,memory,-0.5,0.5,0.55285,FALSE,FALSE,FALSE,TRUE
NA,1.33,NA,NA,NA,NA,NA,NA,NA,NA,g.PNG,g,55e49dccc70c7a000d2a57e5,2021-09-08_17h52.58.332,forced_choiceRT,2021.1.2,Win32,60.90875868,NA,NA,NA,NA,NA,NA,NA,10,Ontime,g,1,1.9228,6,1,25,1,1,NA,NA,NA,NA,NA,1922.8,296.4,2,1,g,g,0,1,552.8499999999999,g,g,1,memory,0.5,-0.5,0.2964,TRUE,TRUE,TRUE,FALSE
NA,0.15,NA,NA,NA,NA,NA,NA,NA,NA,g.PNG,g,55e49dccc70c7a000d2a57e5,2021-09-08_17h52.58.332,forced_choiceRT,2021.1.2,Win32,60.90875868,NA,NA,NA,NA,NA,NA,NA,10,Ontime,g,1,1.9693,6,2,26,1,1,NA,NA,NA,NA,NA,1969.3,909.6500000000001,2,1,g,g,1,1,296.4,g,g,1,memory,-0.5,-0.5,0.9096500000000001,TRUE,TRUE,TRUE,FALSE
NA,0.95,NA,NA,NA,NA,NA,NA,NA,NA,h.PNG,h,55e49dccc70c7a000d2a57e5,2021-09-08_17h52.58.332,forced_choiceRT,2021.1.2,Win32,60.90875868,NA,NA,NA,NA,NA,NA,NA,10,Ontime,h,1,2.0018,7,1,29,2,1,NA,NA,NA,NA,NA,2001.7999999999997,525.9,2,1,h,h,1,1,645.95,j,j,1,memory,-0.5,-0.5,0.5258999999999999,FALSE,FALSE,FALSE,FALSE
NA,0.17,NA,NA,NA,NA,NA,NA,NA,NA,j.PNG,j,55e49dccc70c7a000d2a57e5,2021-09-08_17h52.58.332,forced_choiceRT,2021.1.2,Win32,60.90875868,NA,NA,NA,NA,NA,NA,NA,10,Ontime,j,1,1.9524,7,2,30,3,1,NA,NA,NA,NA,NA,1952.3999999999999,891.2,2,1,j,j,1,1,525.9,h,h,1,memory,-0.5,-0.5,0.8912,FALSE,FALSE,FALSE,FALSE
NA,1.7,NA,NA,NA,NA,NA,NA,NA,NA,f.PNG,f,55e49dccc70c7a000d2a57e5,2021-09-08_17h52.58.332,forced_choiceRT,2021.1.2,Win32,60.90875868,NA,NA,NA,NA,NA,NA,NA,10,Ontime,f,1,1.959,7,3,31,0,1,NA,NA,NA,NA,NA,1959,129.50000000000006,2,1,f,f,1,1,891.2,j,j,1,memory,-0.5,-0.5,0.12950000000000006,FALSE,FALSE,FALSE,FALSE
NA,0.53,NA,NA,NA,NA,NA,NA,NA,NA,f.PNG,f,55e49dccc70c7a000d2a57e5,2021-09-08_17h52.58.332,forced_choiceRT,2021.1.2,Win32,60.90875868,NA,NA,NA,NA,NA,NA,NA,10,Ontime,f,1,1.9542,8,2,34,0,1,NA,NA,NA,NA,NA,1954.2,712.0999999999999,2,1,f,f,0,1,312.9000000000001,g,g,1,memory,0.5,-0.5,0.7121,FALSE,FALSE,FALSE,FALSE
NA,0.61,NA,NA,NA,NA,NA,NA,NA,NA,h.PNG,h,55e49dccc70c7a000d2a57e5,2021-09-08_17h52.58.332,forced_choiceRT,2021.1.2,Win32,60.90875868,NA,NA,NA,NA,NA,NA,NA,10,Ontime,h,1,1.9355,8,3,35,2,1,NA,NA,NA,NA,NA,1935.5,662.75,2,1,h,h,1,1,712.0999999999999,f,f,1,memory,-0.5,-0.5,0.66275,FALSE,FALSE,FALSE,FALSE
NA,0.39,NA,NA,NA,NA,NA,NA,NA,NA,j.PNG,j,55e49dccc70c7a000d2a57e5,2021-09-08_17h52.58.332,forced_choiceRT,2021.1.2,Win32,60.90875868,NA,NA,NA,NA,NA,NA,NA,10,Ontime,j,1,2.0082,9,0,36,3,1,NA,NA,NA,NA,NA,2008.2,809.0999999999999,2,1,j,j,1,1,662.75,h,h,1,memory,-0.5,-0.5,0.8090999999999999,FALSE,FALSE,FALSE,FALSE
NA,1.35,NA,NA,NA,NA,NA,NA,NA,NA,f.PNG,f,55e49dccc70c7a000d2a57e5,2021-09-08_17h52.58.332,forced_choiceRT,2021.1.2,Win32,60.90875868,NA,NA,NA,NA,NA,NA,NA,10,Ontime,f,1,2.0023,9,1,37,0,1,NA,NA,NA,NA,NA,2002.3,326.1499999999999,2,1,f,f,1,1,809.0999999999999,j,j,1,memory,-0.5,-0.5,0.32614999999999994,FALSE,FALSE,FALSE,FALSE
NA,1.04,NA,NA,NA,NA,NA,NA,NA,NA,f.PNG,f,55e49dccc70c7a000d2a57e5,2021-09-08_17h52.58.332,forced_choiceRT,2021.1.2,Win32,60.90875868,NA,NA,NA,NA,NA,NA,NA,10,Ontime,f,1,2.0095,9,2,38,0,1,NA,NA,NA,NA,NA,2009.5,484.75,2,1,f,f,1,1,326.1499999999999,f,f,1,memory,-0.5,-0.5,0.48475,TRUE,TRUE,TRUE,FALSE
NA,0.07,NA,NA,NA,NA,NA,NA,NA,NA,j.PNG,j,5cb7d2f8f0e73600180b9555,2021-09-08_14h18.29.631,forced_choiceRT,2021.1.2,Win32,59.90893841,NA,NA,NA,NA,NA,NA,NA,1,Ontime,j,1,1.9844,0,1,1,3,1,NA,NA,NA,NA,NA,1984.3999999999999,957.1999999999999,2,1,j,j,NA,1,946.55,h,h,1,memory,NA,-0.5,0.9571999999999999,FALSE,FALSE,FALSE,FALSE
NA,1.16,NA,NA,NA,NA,NA,NA,NA,NA,f.PNG,f,5cb7d2f8f0e73600180b9555,2021-09-08_14h18.29.631,forced_choiceRT,2021.1.2,Win32,59.90893841,NA,NA,NA,NA,NA,NA,NA,1,Ontime,f,1,1.9567,0,3,3,0,1,NA,NA,NA,NA,NA,1956.7,398.3500000000001,2,1,f,f,1,1,850.5,j,j,1,memory,-0.5,-0.5,0.3983500000000001,FALSE,FALSE,FALSE,FALSE
NA,0.67,NA,NA,NA,NA,NA,NA,NA,NA,g.PNG,g,5cb7d2f8f0e73600180b9555,2021-09-08_14h18.29.631,forced_choiceRT,2021.1.2,Win32,59.90893841,NA,NA,NA,NA,NA,NA,NA,1,Ontime,g,1,1.9152,1,0,4,1,1,NA,NA,NA,NA,NA,1915.2,622.6,2,1,g,g,1,1,398.3500000000001,f,f,1,memory,-0.5,-0.5,0.6226,FALSE,FALSE,FALSE,FALSE
NA,1.51,NA,NA,NA,NA,NA,NA,NA,NA,h.PNG,h,5cb7d2f8f0e73600180b9555,2021-09-08_14h18.29.631,forced_choiceRT,2021.1.2,Win32,59.90893841,NA,NA,NA,NA,NA,NA,NA,1,Ontime,h,1,2.0913,1,2,6,2,1,NA,NA,NA,NA,NA,2091.2999999999997,290.65,2,1,h,h,1,1,540.35,f,f,1,memory,-0.5,-0.5,0.29064999999999996,FALSE,FALSE,FALSE,FALSE
NA,1.96,NA,NA,NA,NA,NA,NA,NA,NA,h.PNG,h,5cb7d2f8f0e73600180b9555,2021-09-08_14h18.29.631,forced_choiceRT,2021.1.2,Win32,59.90893841,NA,NA,NA,NA,NA,NA,NA,1,Ontime,f,0,2.0474,1,3,7,2,1,NA,NA,NA,NA,NA,2047.4,43.700000000000074,2,0,f,h,1,1,290.65,h,h,0,memory,-0.5,-0.5,0.04370000000000007,FALSE,TRUE,TRUE,FALSE
NA,0.03,NA,NA,NA,NA,NA,NA,NA,NA,j.PNG,j,5cb7d2f8f0e73600180b9555,2021-09-08_14h18.29.631,forced_choiceRT,2021.1.2,Win32,59.90893841,NA,NA,NA,NA,NA,NA,NA,1,Ontime,j,1,1.9705,2,2,10,3,1,NA,NA,NA,NA,NA,1970.5,970.25,2,1,j,j,1,1,877.4,h,h,1,memory,-0.5,-0.5,0.97025,FALSE,FALSE,FALSE,FALSE
NA,0.58,NA,NA,NA,NA,NA,NA,NA,NA,j.PNG,j,5cb7d2f8f0e73600180b9555,2021-09-08_14h18.29.631,forced_choiceRT,2021.1.2,Win32,59.90893841,NA,NA,NA,NA,NA,NA,NA,1,Ontime,j,1,2.0106,2,3,11,3,1,NA,NA,NA,NA,NA,2010.6000000000001,715.3000000000001,2,1,j,j,1,1,970.25,j,j,1,memory,-0.5,-0.5,0.7153,TRUE,TRUE,TRUE,FALSE
NA,1.7,NA,NA,NA,NA,NA,NA,NA,NA,g.PNG,g,5cb7d2f8f0e73600180b9555,2021-09-08_14h18.29.631,forced_choiceRT,2021.1.2,Win32,59.90893841,NA,NA,NA,NA,NA,NA,NA,1,Ontime,g,1,1.9884,3,2,14,1,1,NA,NA,NA,NA,NA,1988.3999999999999,144.2,2,1,g,g,1,1,155.60000000000008,g,g,1,memory,-0.5,-0.5,0.1442,TRUE,TRUE,TRUE,FALSE
NA,1.91,NA,NA,NA,NA,NA,NA,NA,NA,j.PNG,j,5cb7d2f8f0e73600180b9555,2021-09-08_14h18.29.631,forced_choiceRT,2021.1.2,Win32,59.90893841,NA,NA,NA,NA,NA,NA,NA,1,Ontime,g,0,2.0784,3,3,15,3,1,NA,NA,NA,NA,NA,2078.3999999999996,84.19999999999995,2,0,g,j,1,1,144.2,g,g,0,memory,-0.5,-0.5,0.08419999999999994,TRUE,FALSE,FALSE,FALSE
NA,0.35,NA,NA,NA,NA,NA,NA,NA,NA,f.PNG,f,5cb7d2f8f0e73600180b9555,2021-09-08_14h18.29.631,forced_choiceRT,2021.1.2,Win32,59.90893841,NA,NA,NA,NA,NA,NA,NA,1,Ontime,f,1,1.951,4,1,17,0,1,NA,NA,NA,NA,NA,1951,800.5,2,1,f,f,0,1,269.15,f,f,1,memory,0.5,-0.5,0.8005,TRUE,TRUE,TRUE,FALSE
NA,1,NA,NA,NA,NA,NA,NA,NA,NA,g.PNG,g,5cb7d2f8f0e73600180b9555,2021-09-08_14h18.29.631,forced_choiceRT,2021.1.2,Win32,59.90893841,NA,NA,NA,NA,NA,NA,NA,1,Ontime,g,1,1.9363,4,2,18,1,1,NA,NA,NA,NA,NA,1936.3,468.15,2,1,g,g,1,1,800.5,f,f,1,memory,-0.5,-0.5,0.46814999999999996,FALSE,FALSE,FALSE,FALSE
NA,1.54,NA,NA,NA,NA,NA,NA,NA,NA,h.PNG,h,5cb7d2f8f0e73600180b9555,2021-09-08_14h18.29.631,forced_choiceRT,2021.1.2,Win32,59.90893841,NA,NA,NA,NA,NA,NA,NA,1,Ontime,h,1,1.9514,4,3,19,2,1,NA,NA,NA,NA,NA,1951.4,205.7,2,1,h,h,1,1,468.15,g,g,1,memory,-0.5,-0.5,0.2057,FALSE,FALSE,FALSE,FALSE
NA,0.24,NA,NA,NA,NA,NA,NA,NA,NA,f.PNG,f,5cb7d2f8f0e73600180b9555,2021-09-08_14h18.29.631,forced_choiceRT,2021.1.2,Win32,59.90893841,NA,NA,NA,NA,NA,NA,NA,1,Ontime,f,1,1.964,5,0,20,0,1,NA,NA,NA,NA,NA,1964,862,2,1,f,f,1,1,205.7,h,h,1,memory,-0.5,-0.5,0.862,FALSE,FALSE,FALSE,FALSE
NA,0.63,NA,NA,NA,NA,NA,NA,NA,NA,h.PNG,h,5cb7d2f8f0e73600180b9555,2021-09-08_14h18.29.631,forced_choiceRT,2021.1.2,Win32,59.90893841,NA,NA,NA,NA,NA,NA,NA,1,Ontime,g,0,2.0345,5,2,22,2,1,NA,NA,NA,NA,NA,2034.5,702.25,2,0,g,h,1,1,279.2,f,f,0,memory,-0.5,-0.5,0.70225,FALSE,FALSE,FALSE,FALSE
NA,0.88,NA,NA,NA,NA,NA,NA,NA,NA,f.PNG,f,5cb7d2f8f0e73600180b9555,2021-09-08_14h18.29.631,forced_choiceRT,2021.1.2,Win32,59.90893841,NA,NA,NA,NA,NA,NA,NA,1,Ontime,f,1,1.9797,5,3,23,0,1,NA,NA,NA,NA,NA,1979.7,549.8499999999999,2,1,f,f,1,0,702.25,g,h,1,memory,-0.5,0.5,0.54985,FALSE,FALSE,FALSE,FALSE
NA,1.24,NA,NA,NA,NA,NA,NA,NA,NA,g.PNG,g,5cb7d2f8f0e73600180b9555,2021-09-08_14h18.29.631,forced_choiceRT,2021.1.2,Win32,59.90893841,NA,NA,NA,NA,NA,NA,NA,1,Ontime,g,1,2.081,6,0,24,1,1,NA,NA,NA,NA,NA,2081,420.5,2,1,g,g,0,1,549.8499999999999,f,f,1,memory,0.5,-0.5,0.4205,FALSE,FALSE,FALSE,FALSE
NA,1.27,NA,NA,NA,NA,NA,NA,NA,NA,j.PNG,j,5cb7d2f8f0e73600180b9555,2021-09-08_14h18.29.631,forced_choiceRT,2021.1.2,Win32,59.90893841,NA,NA,NA,NA,NA,NA,NA,1,Ontime,j,1,1.9344,6,1,25,3,1,NA,NA,NA,NA,NA,1934.3999999999999,332.19999999999993,2,1,j,j,1,1,420.5,g,g,1,memory,-0.5,-0.5,0.33219999999999994,FALSE,FALSE,FALSE,FALSE
NA,1.48,NA,NA,NA,NA,NA,NA,NA,NA,g.PNG,g,5cb7d2f8f0e73600180b9555,2021-09-08_14h18.29.631,forced_choiceRT,2021.1.2,Win32,59.90893841,NA,NA,NA,NA,NA,NA,NA,1,Ontime,g,1,2.0178,6,3,27,1,1,NA,NA,NA,NA,NA,2017.7999999999997,268.8999999999999,2,1,g,g,1,0,252.44999999999996,h,j,1,memory,-0.5,0.5,0.2688999999999999,FALSE,FALSE,FALSE,FALSE
NA,1.44,NA,NA,NA,NA,NA,NA,NA,NA,g.PNG,g,5cb7d2f8f0e73600180b9555,2021-09-08_14h18.29.631,forced_choiceRT,2021.1.2,Win32,59.90893841,NA,NA,NA,NA,NA,NA,NA,1,Ontime,g,1,2.0122,7,1,29,1,1,NA,NA,NA,NA,NA,2012.2,286.1,2,1,g,g,1,1,784.3,f,f,1,memory,-0.5,-0.5,0.2861,FALSE,FALSE,FALSE,FALSE
NA,0.41,NA,NA,NA,NA,NA,NA,NA,NA,j.PNG,j,5cb7d2f8f0e73600180b9555,2021-09-08_14h18.29.631,forced_choiceRT,2021.1.2,Win32,59.90893841,NA,NA,NA,NA,NA,NA,NA,1,Ontime,j,1,1.9724,7,2,30,3,1,NA,NA,NA,NA,NA,1972.3999999999999,781.2,2,1,j,j,1,1,286.1,g,g,1,memory,-0.5,-0.5,0.7812,FALSE,FALSE,FALSE,FALSE
NA,0.33,NA,NA,NA,NA,NA,NA,NA,NA,g.PNG,g,5cb7d2f8f0e73600180b9555,2021-09-08_14h18.29.631,forced_choiceRT,2021.1.2,Win32,59.90893841,NA,NA,NA,NA,NA,NA,NA,1,Ontime,g,1,2.0512,8,0,32,1,1,NA,NA,NA,NA,NA,2051.2000000000003,860.6,2,1,g,g,1,1,607.95,h,h,1,memory,-0.5,-0.5,0.8606,FALSE,FALSE,FALSE,FALSE
NA,0.19,NA,NA,NA,NA,NA,NA,NA,NA,h.PNG,h,5cb7d2f8f0e73600180b9555,2021-09-08_14h18.29.631,forced_choiceRT,2021.1.2,Win32,59.90893841,NA,NA,NA,NA,NA,NA,NA,1,Ontime,h,1,1.9387,8,1,33,2,1,NA,NA,NA,NA,NA,1938.7,874.35,2,1,h,h,1,1,860.6,g,g,1,memory,-0.5,-0.5,0.8743500000000001,FALSE,FALSE,FALSE,FALSE
NA,0.43,NA,NA,NA,NA,NA,NA,NA,NA,j.PNG,j,5cb7d2f8f0e73600180b9555,2021-09-08_14h18.29.631,forced_choiceRT,2021.1.2,Win32,59.90893841,NA,NA,NA,NA,NA,NA,NA,1,Ontime,j,1,2.0618,8,2,34,3,1,NA,NA,NA,NA,NA,2061.7999999999997,815.9,2,1,j,j,1,1,874.35,h,h,1,memory,-0.5,-0.5,0.8159,FALSE,FALSE,FALSE,FALSE
NA,0.73,NA,NA,NA,NA,NA,NA,NA,NA,h.PNG,h,5cb7d2f8f0e73600180b9555,2021-09-08_14h18.29.631,forced_choiceRT,2021.1.2,Win32,59.90893841,NA,NA,NA,NA,NA,NA,NA,1,Ontime,h,1,1.9627,9,0,36,2,1,NA,NA,NA,NA,NA,1962.6999999999998,616.3499999999999,2,1,h,h,1,0,248.85000000000002,g,h,1,memory,-0.5,0.5,0.61635,FALSE,TRUE,FALSE,FALSE
NA,0.97,NA,NA,NA,NA,NA,NA,NA,NA,f.PNG,f,5cb7d2f8f0e73600180b9555,2021-09-08_14h18.29.631,forced_choiceRT,2021.1.2,Win32,59.90893841,NA,NA,NA,NA,NA,NA,NA,1,Ontime,f,1,2.0214,9,1,37,0,1,NA,NA,NA,NA,NA,2021.3999999999999,525.6999999999999,2,1,f,f,0,1,616.3499999999999,h,h,1,memory,0.5,-0.5,0.5257,FALSE,FALSE,FALSE,FALSE
NA,0.56,NA,NA,NA,NA,NA,NA,NA,NA,f.PNG,f,5cb7d2f8f0e73600180b9555,2021-09-08_14h18.29.631,forced_choiceRT,2021.1.2,Win32,59.90893841,NA,NA,NA,NA,NA,NA,NA,1,Ontime,f,1,2.0548,9,3,39,0,1,NA,NA,NA,NA,NA,2054.8,747.4000000000001,2,1,f,f,1,0,114.15000000000009,f,g,1,memory,-0.5,0.5,0.7474000000000001,TRUE,FALSE,TRUE,FALSE
NA,0.94,NA,NA,NA,NA,NA,NA,NA,NA,h.PNG,h,5cb7d2f8f0e73600180b9555,2021-09-08_14h18.29.631,forced_choiceRT,2021.1.2,Win32,59.90893841,NA,NA,NA,NA,NA,NA,NA,2,Ontime,h,1,2.0509,0,0,0,2,1,NA,NA,NA,NA,NA,2050.9,555.45,2,1,h,h,0,1,747.4000000000001,f,f,1,memory,0.5,-0.5,0.55545,FALSE,FALSE,FALSE,FALSE
NA,0.61,NA,NA,NA,NA,NA,NA,NA,NA,j.PNG,j,5cb7d2f8f0e73600180b9555,2021-09-08_14h18.29.631,forced_choiceRT,2021.1.2,Win32,59.90893841,NA,NA,NA,NA,NA,NA,NA,2,Ontime,j,1,1.985,0,1,1,3,1,NA,NA,NA,NA,NA,1985,687.5,2,1,j,j,1,1,555.45,h,h,1,memory,-0.5,-0.5,0.6875,FALSE,FALSE,FALSE,FALSE
NA,0.38,NA,NA,NA,NA,NA,NA,NA,NA,h.PNG,h,5cb7d2f8f0e73600180b9555,2021-09-08_14h18.29.631,forced_choiceRT,2021.1.2,Win32,59.90893841,NA,NA,NA,NA,NA,NA,NA,2,Ontime,h,1,1.9769,0,3,3,2,1,NA,NA,NA,NA,NA,1976.9,798.4500000000002,2,1,h,h,1,1,320.6,j,j,1,memory,-0.5,-0.5,0.7984500000000001,FALSE,FALSE,FALSE,FALSE
NA,0.42,NA,NA,NA,NA,NA,NA,NA,NA,j.PNG,j,5cb7d2f8f0e73600180b9555,2021-09-08_14h18.29.631,forced_choiceRT,2021.1.2,Win32,59.90893841,NA,NA,NA,NA,NA,NA,NA,2,Ontime,j,1,2.0142,1,2,6,3,1,NA,NA,NA,NA,NA,2014.2000000000003,797.1000000000001,2,1,j,j,1,1,478.4,j,j,1,memory,-0.5,-0.5,0.7971000000000001,TRUE,TRUE,TRUE,FALSE
NA,0.55,NA,NA,NA,NA,NA,NA,NA,NA,j.PNG,j,5cb7d2f8f0e73600180b9555,2021-09-08_14h18.29.631,forced_choiceRT,2021.1.2,Win32,59.90893841,NA,NA,NA,NA,NA,NA,NA,2,Ontime,j,1,2.0011,1,3,7,3,1,NA,NA,NA,NA,NA,2001.1000000000001,725.5500000000001,2,1,j,j,1,1,797.1000000000001,j,j,1,memory,-0.5,-0.5,0.72555,TRUE,TRUE,TRUE,FALSE
NA,0.09,NA,NA,NA,NA,NA,NA,NA,NA,g.PNG,g,5cb7d2f8f0e73600180b9555,2021-09-08_14h18.29.631,forced_choiceRT,2021.1.2,Win32,59.90893841,NA,NA,NA,NA,NA,NA,NA,2,Ontime,g,1,2.043,2,0,8,1,1,NA,NA,NA,NA,NA,2043.0000000000002,976.5,2,1,g,g,1,1,725.5500000000001,j,j,1,memory,-0.5,-0.5,0.9765,FALSE,FALSE,FALSE,FALSE
NA,1.31,NA,NA,NA,NA,NA,NA,NA,NA,j.PNG,j,5cb7d2f8f0e73600180b9555,2021-09-08_14h18.29.631,forced_choiceRT,2021.1.2,Win32,59.90893841,NA,NA,NA,NA,NA,NA,NA,2,Ontime,j,1,2.001,2,1,9,3,1,NA,NA,NA,NA,NA,2001,345.49999999999994,2,1,j,j,1,1,976.5,g,g,1,memory,-0.5,-0.5,0.3454999999999999,FALSE,FALSE,FALSE,FALSE
NA,1.19,NA,NA,NA,NA,NA,NA,NA,NA,g.PNG,g,5cb7d2f8f0e73600180b9555,2021-09-08_14h18.29.631,forced_choiceRT,2021.1.2,Win32,59.90893841,NA,NA,NA,NA,NA,NA,NA,2,Ontime,g,1,2.0679,2,2,10,1,1,NA,NA,NA,NA,NA,2067.8999999999996,438.94999999999993,2,1,g,g,1,1,345.49999999999994,j,j,1,memory,-0.5,-0.5,0.43894999999999995,FALSE,FALSE,FALSE,FALSE
NA,0.3,NA,NA,NA,NA,NA,NA,NA,NA,f.PNG,f,5cb7d2f8f0e73600180b9555,2021-09-08_14h18.29.631,forced_choiceRT,2021.1.2,Win32,59.90893841,NA,NA,NA,NA,NA,NA,NA,2,Ontime,f,1,2.0285,2,3,11,0,1,NA,NA,NA,NA,NA,2028.5000000000002,864.2500000000001,2,1,f,f,1,1,438.94999999999993,g,g,1,memory,-0.5,-0.5,0.8642500000000001,FALSE,FALSE,FALSE,FALSE
NA,0.47,NA,NA,NA,NA,NA,NA,NA,NA,j.PNG,j,5cb7d2f8f0e73600180b9555,2021-09-08_14h18.29.631,forced_choiceRT,2021.1.2,Win32,59.90893841,NA,NA,NA,NA,NA,NA,NA,2,Ontime,j,1,1.9962,3,1,13,3,1,NA,NA,NA,NA,NA,1996.2,763.1,2,1,j,j,1,1,84.65,h,h,1,memory,-0.5,-0.5,0.7631,FALSE,FALSE,FALSE,TRUE
NA,1.19,NA,NA,NA,NA,NA,NA,NA,NA,g.PNG,g,5cb7d2f8f0e73600180b9555,2021-09-08_14h18.29.631,forced_choiceRT,2021.1.2,Win32,59.90893841,NA,NA,NA,NA,NA,NA,NA,2,Ontime,g,1,2.0279,3,2,14,1,1,NA,NA,NA,NA,NA,2027.8999999999999,418.94999999999993,2,1,g,g,1,1,763.1,j,j,1,memory,-0.5,-0.5,0.41894999999999993,FALSE,FALSE,FALSE,FALSE
NA,0.74,NA,NA,NA,NA,NA,NA,NA,NA,g.PNG,g,5cb7d2f8f0e73600180b9555,2021-09-08_14h18.29.631,forced_choiceRT,2021.1.2,Win32,59.90893841,NA,NA,NA,NA,NA,NA,NA,2,Ontime,g,1,2.001,3,3,15,1,1,NA,NA,NA,NA,NA,2001,630.5,2,1,g,g,1,1,418.94999999999993,g,g,1,memory,-0.5,-0.5,0.6305,TRUE,TRUE,TRUE,FALSE
NA,0.72,NA,NA,NA,NA,NA,NA,NA,NA,h.PNG,h,5cb7d2f8f0e73600180b9555,2021-09-08_14h18.29.631,forced_choiceRT,2021.1.2,Win32,59.90893841,NA,NA,NA,NA,NA,NA,NA,2,Ontime,h,1,2.0519,4,0,16,2,1,NA,NA,NA,NA,NA,2051.8999999999996,665.9499999999999,2,1,h,h,1,1,630.5,g,g,1,memory,-0.5,-0.5,0.6659499999999999,FALSE,FALSE,FALSE,FALSE
NA,0.22,NA,NA,NA,NA,NA,NA,NA,NA,f.PNG,f,5cb7d2f8f0e73600180b9555,2021-09-08_14h18.29.631,forced_choiceRT,2021.1.2,Win32,59.90893841,NA,NA,NA,NA,NA,NA,NA,2,Ontime,f,1,2.0805,4,1,17,0,1,NA,NA,NA,NA,NA,2080.5,930.2499999999999,2,1,f,f,1,1,665.9499999999999,h,h,1,memory,-0.5,-0.5,0.9302499999999999,FALSE,FALSE,FALSE,FALSE
NA,1.09,NA,NA,NA,NA,NA,NA,NA,NA,g.PNG,g,5cb7d2f8f0e73600180b9555,2021-09-08_14h18.29.631,forced_choiceRT,2021.1.2,Win32,59.90893841,NA,NA,NA,NA,NA,NA,NA,2,Ontime,g,1,2.0346,4,2,18,1,1,NA,NA,NA,NA,NA,2034.6000000000001,472.30000000000007,2,1,g,g,1,1,930.2499999999999,f,f,1,memory,-0.5,-0.5,0.47230000000000005,FALSE,FALSE,FALSE,FALSE
NA,0.39,NA,NA,NA,NA,NA,NA,NA,NA,j.PNG,j,5cb7d2f8f0e73600180b9555,2021-09-08_14h18.29.631,forced_choiceRT,2021.1.2,Win32,59.90893841,NA,NA,NA,NA,NA,NA,NA,2,Ontime,j,1,1.9392,4,3,19,3,1,NA,NA,NA,NA,NA,1939.2,774.5999999999999,2,1,j,j,1,1,472.30000000000007,g,g,1,memory,-0.5,-0.5,0.7746,FALSE,FALSE,FALSE,FALSE
NA,1.25,NA,NA,NA,NA,NA,NA,NA,NA,h.PNG,h,5cb7d2f8f0e73600180b9555,2021-09-08_14h18.29.631,forced_choiceRT,2021.1.2,Win32,59.90893841,NA,NA,NA,NA,NA,NA,NA,2,Ontime,h,1,1.951,5,0,20,2,1,NA,NA,NA,NA,NA,1951,350.50000000000006,2,1,h,h,1,1,774.5999999999999,j,j,1,memory,-0.5,-0.5,0.35050000000000003,FALSE,FALSE,FALSE,FALSE
NA,1.61,NA,NA,NA,NA,NA,NA,NA,NA,h.PNG,h,5cb7d2f8f0e73600180b9555,2021-09-08_14h18.29.631,forced_choiceRT,2021.1.2,Win32,59.90893841,NA,NA,NA,NA,NA,NA,NA,2,Ontime,g,0,2.0183,5,1,21,2,1,NA,NA,NA,NA,NA,2018.3,204.14999999999995,2,0,g,h,1,1,350.50000000000006,h,h,0,memory,-0.5,-0.5,0.20414999999999994,FALSE,TRUE,TRUE,FALSE
NA,0.26,NA,NA,NA,NA,NA,NA,NA,NA,j.PNG,j,5cb7d2f8f0e73600180b9555,2021-09-08_14h18.29.631,forced_choiceRT,2021.1.2,Win32,59.90893841,NA,NA,NA,NA,NA,NA,NA,2,Ontime,j,1,2.0179,5,2,22,3,1,NA,NA,NA,NA,NA,2017.9,878.95,2,1,j,j,1,0,204.14999999999995,g,h,1,memory,-0.5,0.5,0.87895,FALSE,FALSE,FALSE,FALSE
NA,1.49,NA,NA,NA,NA,NA,NA,NA,NA,g.PNG,g,5cb7d2f8f0e73600180b9555,2021-09-08_14h18.29.631,forced_choiceRT,2021.1.2,Win32,59.90893841,NA,NA,NA,NA,NA,NA,NA,2,Ontime,f,0,1.9259,5,3,23,1,1,NA,NA,NA,NA,NA,1925.8999999999999,217.95,2,0,f,g,0,1,878.95,j,j,0,memory,0.5,-0.5,0.21794999999999998,FALSE,FALSE,FALSE,FALSE
NA,0.71,NA,NA,NA,NA,NA,NA,NA,NA,h.PNG,h,5cb7d2f8f0e73600180b9555,2021-09-08_14h18.29.631,forced_choiceRT,2021.1.2,Win32,59.90893841,NA,NA,NA,NA,NA,NA,NA,2,Ontime,h,1,2.0127,6,0,24,2,1,NA,NA,NA,NA,NA,2012.7,651.3500000000001,2,1,h,h,1,0,217.95,f,g,1,memory,-0.5,0.5,0.6513500000000001,FALSE,FALSE,FALSE,FALSE
NA,0.57,NA,NA,NA,NA,NA,NA,NA,NA,f.PNG,f,5cb7d2f8f0e73600180b9555,2021-09-08_14h18.29.631,forced_choiceRT,2021.1.2,Win32,59.90893841,NA,NA,NA,NA,NA,NA,NA,2,Ontime,f,1,2.0512,6,1,25,0,1,NA,NA,NA,NA,NA,2051.2000000000003,740.6000000000001,2,1,f,f,0,1,651.3500000000001,h,h,1,memory,0.5,-0.5,0.7406000000000001,FALSE,FALSE,FALSE,FALSE
NA,1.9,NA,NA,NA,NA,NA,NA,NA,NA,f.PNG,f,5cb7d2f8f0e73600180b9555,2021-09-08_14h18.29.631,forced_choiceRT,2021.1.2,Win32,59.90893841,NA,NA,NA,NA,NA,NA,NA,2,Ontime,j,0,1.9917,6,2,26,0,1,NA,NA,NA,NA,NA,1991.7,45.85000000000006,2,0,j,f,1,1,740.6000000000001,f,f,0,memory,-0.5,-0.5,0.04585000000000006,FALSE,TRUE,TRUE,FALSE
NA,1.4,NA,NA,NA,NA,NA,NA,NA,NA,h.PNG,h,5cb7d2f8f0e73600180b9555,2021-09-08_14h18.29.631,forced_choiceRT,2021.1.2,Win32,59.90893841,NA,NA,NA,NA,NA,NA,NA,2,Ontime,g,0,2.0417,6,3,27,2,1,NA,NA,NA,NA,NA,2041.7,320.8500000000001,2,0,g,h,1,0,45.85000000000006,j,f,0,memory,-0.5,0.5,0.3208500000000001,FALSE,FALSE,FALSE,TRUE
NA,0.78,NA,NA,NA,NA,NA,NA,NA,NA,f.PNG,f,5cb7d2f8f0e73600180b9555,2021-09-08_14h18.29.631,forced_choiceRT,2021.1.2,Win32,59.90893841,NA,NA,NA,NA,NA,NA,NA,2,Ontime,f,1,2.0346,7,0,28,0,1,NA,NA,NA,NA,NA,2034.6000000000001,627.3000000000001,2,1,f,f,0,0,320.8500000000001,g,h,1,memory,0.5,0.5,0.6273000000000001,FALSE,FALSE,FALSE,FALSE
NA,0.64,NA,NA,NA,NA,NA,NA,NA,NA,h.PNG,h,5cb7d2f8f0e73600180b9555,2021-09-08_14h18.29.631,forced_choiceRT,2021.1.2,Win32,59.90893841,NA,NA,NA,NA,NA,NA,NA,2,Ontime,h,1,2.0271,7,2,30,2,1,NA,NA,NA,NA,NA,2027.1,693.5499999999998,2,1,h,h,1,1,467.05000000000007,g,g,1,memory,-0.5,-0.5,0.6935499999999999,FALSE,FALSE,FALSE,FALSE
NA,0.63,NA,NA,NA,NA,NA,NA,NA,NA,g.PNG,g,5cb7d2f8f0e73600180b9555,2021-09-08_14h18.29.631,forced_choiceRT,2021.1.2,Win32,59.90893841,NA,NA,NA,NA,NA,NA,NA,2,Ontime,g,1,1.9173,8,0,32,1,1,NA,NA,NA,NA,NA,1917.3,643.6500000000001,2,1,g,g,1,1,679.85,f,f,1,memory,-0.5,-0.5,0.64365000000000006,FALSE,FALSE,FALSE,FALSE
NA,1.83,NA,NA,NA,NA,NA,NA,NA,NA,f.PNG,f,5cb7d2f8f0e73600180b9555,2021-09-08_14h18.29.631,forced_choiceRT,2021.1.2,Win32,59.90893841,NA,NA,NA,NA,NA,NA,NA,2,Ontime,h,0,2.0177,8,1,33,0,1,NA,NA,NA,NA,NA,2017.7,93.85,2,0,h,f,1,1,643.6500000000001,g,g,0,memory,-0.5,-0.5,0.09384999999999999,FALSE,FALSE,FALSE,FALSE
NA,0.39,NA,NA,NA,NA,NA,NA,NA,NA,g.PNG,g,5cb7d2f8f0e73600180b9555,2021-09-08_14h18.29.631,forced_choiceRT,2021.1.2,Win32,59.90893841,NA,NA,NA,NA,NA,NA,NA,2,Ontime,g,1,1.9011,8,2,34,1,1,NA,NA,NA,NA,NA,1901.1,755.55,2,1,g,g,1,0,93.85,h,f,1,memory,-0.5,0.5,0.7555499999999999,FALSE,FALSE,FALSE,TRUE
NA,0.43,NA,NA,NA,NA,NA,NA,NA,NA,j.PNG,j,5cb7d2f8f0e73600180b9555,2021-09-08_14h18.29.631,forced_choiceRT,2021.1.2,Win32,59.90893841,NA,NA,NA,NA,NA,NA,NA,2,Ontime,j,1,1.9998,8,3,35,3,1,NA,NA,NA,NA,NA,1999.8,784.9000000000001,2,1,j,j,0,1,755.55,g,g,1,memory,0.5,-0.5,0.7849,FALSE,FALSE,FALSE,FALSE
NA,0.33,NA,NA,NA,NA,NA,NA,NA,NA,f.PNG,f,5cb7d2f8f0e73600180b9555,2021-09-08_14h18.29.631,forced_choiceRT,2021.1.2,Win32,59.90893841,NA,NA,NA,NA,NA,NA,NA,2,Ontime,f,1,2.0552,9,0,36,0,1,NA,NA,NA,NA,NA,2055.2000000000003,862.6,2,1,f,f,1,1,784.9000000000001,j,j,1,memory,-0.5,-0.5,0.8626,FALSE,FALSE,FALSE,FALSE
NA,1.5,NA,NA,NA,NA,NA,NA,NA,NA,h.PNG,h,5cb7d2f8f0e73600180b9555,2021-09-08_14h18.29.631,forced_choiceRT,2021.1.2,Win32,59.90893841,NA,NA,NA,NA,NA,NA,NA,2,Ontime,g,0,2.0314,9,1,37,2,1,NA,NA,NA,NA,NA,2031.4,265.70000000000005,2,0,g,h,1,1,862.6,f,f,0,memory,-0.5,-0.5,0.26570000000000005,FALSE,FALSE,FALSE,FALSE
NA,0.91,NA,NA,NA,NA,NA,NA,NA,NA,f.PNG,f,5cb7d2f8f0e73600180b9555,2021-09-08_14h18.29.631,forced_choiceRT,2021.1.2,Win32,59.90893841,NA,NA,NA,NA,NA,NA,NA,2,Ontime,f,1,1.9479,9,2,38,0,1,NA,NA,NA,NA,NA,1947.8999999999999,518.95,2,1,f,f,1,0,265.70000000000005,g,h,1,memory,-0.5,0.5,0.51895,FALSE,FALSE,FALSE,FALSE
NA,0.66,NA,NA,NA,NA,NA,NA,NA,NA,f.PNG,f,5cb7d2f8f0e73600180b9555,2021-09-08_14h18.29.631,forced_choiceRT,2021.1.2,Win32,59.90893841,NA,NA,NA,NA,NA,NA,NA,3,Ontime,f,1,2.0486,0,1,1,0,1,NA,NA,NA,NA,NA,2048.6,694.3,2,1,f,f,1,1,457.19999999999993,j,j,1,memory,-0.5,-0.5,0.6942999999999999,FALSE,FALSE,FALSE,FALSE
NA,0.84,NA,NA,NA,NA,NA,NA,NA,NA,f.PNG,f,5cb7d2f8f0e73600180b9555,2021-09-08_14h18.29.631,forced_choiceRT,2021.1.2,Win32,59.90893841,NA,NA,NA,NA,NA,NA,NA,3,Ontime,f,1,1.9844,0,2,2,0,1,NA,NA,NA,NA,NA,1984.3999999999999,572.2,2,1,f,f,1,1,694.3,f,f,1,memory,-0.5,-0.5,0.5722,TRUE,TRUE,TRUE,FALSE
NA,1.96,NA,NA,NA,NA,NA,NA,NA,NA,f.PNG,f,5cb7d2f8f0e73600180b9555,2021-09-08_14h18.29.631,forced_choiceRT,2021.1.2,Win32,59.90893841,NA,NA,NA,NA,NA,NA,NA,3,Ontime,j,0,2.0262,0,3,3,0,1,NA,NA,NA,NA,NA,2026.1999999999998,33.09999999999991,2,0,j,f,1,1,572.2,f,f,0,memory,-0.5,-0.5,0.03309999999999991,FALSE,TRUE,TRUE,FALSE
NA,1.44,NA,NA,NA,NA,NA,NA,NA,NA,g.PNG,g,5cb7d2f8f0e73600180b9555,2021-09-08_14h18.29.631,forced_choiceRT,2021.1.2,Win32,59.90893841,NA,NA,NA,NA,NA,NA,NA,3,Ontime,g,1,2.0819,1,0,4,1,1,NA,NA,NA,NA,NA,2081.9,320.95000000000005,2,1,g,g,1,0,33.09999999999991,j,f,1,memory,-0.5,0.5,0.32095000000000007,FALSE,FALSE,FALSE,TRUE
NA,0.41,NA,NA,NA,NA,NA,NA,NA,NA,g.PNG,g,5cb7d2f8f0e73600180b9555,2021-09-08_14h18.29.631,forced_choiceRT,2021.1.2,Win32,59.90893841,NA,NA,NA,NA,NA,NA,NA,3,Ontime,g,1,2.018,1,1,5,1,1,NA,NA,NA,NA,NA,2017.9999999999998,803.9999999999999,2,1,g,g,0,1,320.95000000000005,g,g,1,memory,0.5,-0.5,0.8039999999999999,TRUE,TRUE,TRUE,FALSE
NA,0.01,NA,NA,NA,NA,NA,NA,NA,NA,h.PNG,h,5cb7d2f8f0e73600180b9555,2021-09-08_14h18.29.631,forced_choiceRT,2021.1.2,Win32,59.90893841,NA,NA,NA,NA,NA,NA,NA,3,Ontime,h,1,2.0011,1,2,6,2,1,NA,NA,NA,NA,NA,2001.1000000000001,995.5500000000001,2,1,h,h,1,1,803.9999999999999,g,g,1,memory,-0.5,-0.5,0.99555,FALSE,FALSE,FALSE,FALSE
NA,1.77,NA,NA,NA,NA,NA,NA,NA,NA,h.PNG,h,5cb7d2f8f0e73600180b9555,2021-09-08_14h18.29.631,forced_choiceRT,2021.1.2,Win32,59.90893841,NA,NA,NA,NA,NA,NA,NA,3,Ontime,j,0,2.0297,1,3,7,2,1,NA,NA,NA,NA,NA,2029.7,129.85000000000002,2,0,j,h,1,1,995.5500000000001,h,h,0,memory,-0.5,-0.5,0.12985000000000002,FALSE,TRUE,TRUE,FALSE
NA,1.84,NA,NA,NA,NA,NA,NA,NA,NA,f.PNG,f,5cb7d2f8f0e73600180b9555,2021-09-08_14h18.29.631,forced_choiceRT,2021.1.2,Win32,59.90893841,NA,NA,NA,NA,NA,NA,NA,3,Ontime,j,0,2.0509,2,0,8,0,1,NA,NA,NA,NA,NA,2050.9,105.44999999999993,2,0,j,f,1,0,129.85000000000002,j,h,0,memory,-0.5,0.5,0.10544999999999993,TRUE,FALSE,FALSE,FALSE
NA,1.02,NA,NA,NA,NA,NA,NA,NA,NA,j.PNG,j,5cb7d2f8f0e73600180b9555,2021-09-08_14h18.29.631,forced_choiceRT,2021.1.2,Win32,59.90893841,NA,NA,NA,NA,NA,NA,NA,3,Ontime,j,1,1.9566,2,2,10,3,1,NA,NA,NA,NA,NA,1956.6,468.29999999999995,2,1,j,j,0,1,466.55,g,g,1,memory,0.5,-0.5,0.46829999999999994,FALSE,FALSE,FALSE,FALSE
NA,1.24,NA,NA,NA,NA,NA,NA,NA,NA,g.PNG,g,5cb7d2f8f0e73600180b9555,2021-09-08_14h18.29.631,forced_choiceRT,2021.1.2,Win32,59.90893841,NA,NA,NA,NA,NA,NA,NA,3,Ontime,g,1,2.0344,3,0,12,1,1,NA,NA,NA,NA,NA,2034.4000000000003,397.2000000000001,2,1,g,g,1,1,619.5500000000001,h,h,1,memory,-0.5,-0.5,0.3972000000000001,FALSE,FALSE,FALSE,FALSE
