IP_Addresss,target_onset,trial_resp_sp.keys,trial_resp_sp.corr,trial_resp_sp.rt,trials_train_loop.thisRepN,trials_train_loop.thisTrialN,trials_train_loop.thisN,trials_train_loop.thisIndex,trials_train_loop.ran,correct_key,color,participant,date,expName,psychopyVersion,OS,frameRate,trial_resp_timing.keys,trial_resp_timing.rt,trials_train_timing.thisRepN,trials_train_timing.thisTrialN,trials_train_timing.thisN,trials_train_timing.thisIndex,trials_train_timing.ran,block_id,ontime,feedback_cond,forcedRT_resp.keys,forcedRT_resp.corr,forcedRT_resp.rt,trials.thisRepN,trials.thisTrialN,trials.thisN,trials.thisIndex,trials.ran,blocks.thisRepN,blocks.thisTrialN,blocks.thisN,blocks.thisIndex,blocks.ran,RT,PT,accuracy,key,stim,acc00,acc0,time0,key0,stim0,y,exp,err00,err0,time,key_rep,stim_rep,key_stim_rep,time_rep
NA,1.1,NA,NA,NA,NA,NA,NA,NA,NA,d,orange,558812eefdf99b14f004b722,2021-09-27_16h11.00.912,forced_choiceRT_color,2021.2.3,Win32,30.0120048,NA,NA,NA,NA,NA,NA,NA,1,Ontime,short,d,1,2.03,0,3,3,0,1,NA,NA,NA,NA,NA,2029.9999999999998,464.9999999999999,1,d,d,1,0,236,d,k,1,memory_color_short,-0.5,0.5,0.4649999999999999,TRUE,FALSE,TRUE,FALSE
NA,0.35,NA,NA,NA,NA,NA,NA,NA,NA,j,red,558812eefdf99b14f004b722,2021-09-27_16h11.00.912,forced_choiceRT_color,2021.2.3,Win32,30.0120048,NA,NA,NA,NA,NA,NA,NA,1,Ontime,short,j,1,1.997,1,1,5,2,1,NA,NA,NA,NA,NA,1997,823.5000000000001,1,j,j,1,0,262.50000000000006,k,f,1,memory_color_short,-0.5,0.5,0.8235000000000001,FALSE,FALSE,FALSE,FALSE
NA,1.15,NA,NA,NA,NA,NA,NA,NA,NA,d,orange,558812eefdf99b14f004b722,2021-09-27_16h11.00.912,forced_choiceRT_color,2021.2.3,Win32,30.0120048,NA,NA,NA,NA,NA,NA,NA,1,Ontime,short,d,1,2.015,1,2,6,0,1,NA,NA,NA,NA,NA,2015.0000000000002,432.5000000000001,1,d,d,0,1,823.5000000000001,j,j,1,memory_color_short,0.5,-0.5,0.4325000000000001,FALSE,FALSE,FALSE,FALSE
NA,0.65,NA,NA,NA,NA,NA,NA,NA,NA,k,purple,558812eefdf99b14f004b722,2021-09-27_16h11.00.912,forced_choiceRT_color,2021.2.3,Win32,30.0120048,NA,NA,NA,NA,NA,NA,NA,1,Ontime,short,k,1,2.057,2,0,8,3,1,NA,NA,NA,NA,NA,2057,703.5,1,k,k,1,0,150.49999999999997,k,f,1,memory_color_short,-0.5,0.5,0.7035,TRUE,FALSE,TRUE,FALSE
NA,1.05,NA,NA,NA,NA,NA,NA,NA,NA,j,red,558812eefdf99b14f004b722,2021-09-27_16h11.00.912,forced_choiceRT_color,2021.2.3,Win32,30.0120048,NA,NA,NA,NA,NA,NA,NA,1,Ontime,short,j,1,2.036,2,2,10,2,1,NA,NA,NA,NA,NA,2036,493,1,j,j,1,1,233.49999999999994,k,k,1,memory_color_short,-0.5,-0.5,0.493,FALSE,FALSE,FALSE,FALSE
NA,0.2,NA,NA,NA,NA,NA,NA,NA,NA,d,orange,558812eefdf99b14f004b722,2021-09-27_16h11.00.912,forced_choiceRT_color,2021.2.3,Win32,30.0120048,NA,NA,NA,NA,NA,NA,NA,1,Ontime,short,d,1,2.047,2,3,11,0,1,NA,NA,NA,NA,NA,2047.0000000000002,923.5000000000001,1,d,d,1,1,493,j,j,1,memory_color_short,-0.5,-0.5,0.9235000000000001,FALSE,FALSE,FALSE,FALSE
NA,1.17,NA,NA,NA,NA,NA,NA,NA,NA,d,orange,558812eefdf99b14f004b722,2021-09-27_16h11.00.912,forced_choiceRT_color,2021.2.3,Win32,30.0120048,NA,NA,NA,NA,NA,NA,NA,1,Ontime,short,d,1,1.964,3,0,12,0,1,NA,NA,NA,NA,NA,1964,397,1,d,d,1,1,923.5000000000001,d,d,1,memory_color_short,-0.5,-0.5,0.397,TRUE,TRUE,TRUE,FALSE
NA,0.61,NA,NA,NA,NA,NA,NA,NA,NA,f,blue,558812eefdf99b14f004b722,2021-09-27_16h11.00.912,forced_choiceRT_color,2021.2.3,Win32,30.0120048,NA,NA,NA,NA,NA,NA,NA,1,Ontime,short,f,1,2.095,4,0,16,1,1,NA,NA,NA,NA,NA,2095,742.5000000000001,1,f,f,1,0,250.50000000000006,f,k,1,memory_color_short,-0.5,0.5,0.7425000000000002,TRUE,FALSE,TRUE,FALSE
NA,1.74,NA,NA,NA,NA,NA,NA,NA,NA,k,purple,558812eefdf99b14f004b722,2021-09-27_16h11.00.912,forced_choiceRT_color,2021.2.3,Win32,30.0120048,NA,NA,NA,NA,NA,NA,NA,1,Ontime,short,k,1,2.045,4,2,18,3,1,NA,NA,NA,NA,NA,2045,152.49999999999997,1,k,k,1,0,202.49999999999991,d,k,1,memory_color_short,-0.5,0.5,0.15249999999999997,FALSE,TRUE,FALSE,FALSE
NA,0.26,NA,NA,NA,NA,NA,NA,NA,NA,f,blue,558812eefdf99b14f004b722,2021-09-27_16h11.00.912,forced_choiceRT_color,2021.2.3,Win32,30.0120048,NA,NA,NA,NA,NA,NA,NA,1,Ontime,short,f,1,1.967,5,0,20,1,1,NA,NA,NA,NA,NA,1967,853.5,1,f,f,1,1,934.5000000000001,f,f,1,memory_color_short,-0.5,-0.5,0.8535,TRUE,TRUE,TRUE,FALSE
NA,1.95,NA,NA,NA,NA,NA,NA,NA,NA,f,blue,558812eefdf99b14f004b722,2021-09-27_16h11.00.912,forced_choiceRT_color,2021.2.3,Win32,30.0120048,NA,NA,NA,NA,NA,NA,NA,1,Ontime,short,f,1,2.055,5,1,21,1,1,NA,NA,NA,NA,NA,2055,52.5000000000001,1,f,f,1,1,853.5,f,f,1,memory_color_short,-0.5,-0.5,0.0525000000000001,TRUE,TRUE,TRUE,FALSE
NA,0.29,NA,NA,NA,NA,NA,NA,NA,NA,j,red,558812eefdf99b14f004b722,2021-09-27_16h11.00.912,forced_choiceRT_color,2021.2.3,Win32,30.0120048,NA,NA,NA,NA,NA,NA,NA,1,Ontime,short,j,1,1.992,5,3,23,2,1,NA,NA,NA,NA,NA,1992,851,1,j,j,1,1,239.50000000000006,f,f,1,memory_color_short,-0.5,-0.5,0.851,FALSE,FALSE,FALSE,FALSE
NA,0.72,NA,NA,NA,NA,NA,NA,NA,NA,k,purple,558812eefdf99b14f004b722,2021-09-27_16h11.00.912,forced_choiceRT_color,2021.2.3,Win32,30.0120048,NA,NA,NA,NA,NA,NA,NA,1,Ontime,short,k,1,2.061,6,0,24,3,1,NA,NA,NA,NA,NA,2061,670.5,1,k,k,1,1,851,j,j,1,memory_color_short,-0.5,-0.5,0.6705,FALSE,FALSE,FALSE,FALSE
NA,1.15,NA,NA,NA,NA,NA,NA,NA,NA,d,orange,558812eefdf99b14f004b722,2021-09-27_16h11.00.912,forced_choiceRT_color,2021.2.3,Win32,30.0120048,NA,NA,NA,NA,NA,NA,NA,1,Ontime,short,d,1,1.957,6,1,25,0,1,NA,NA,NA,NA,NA,1957,403.50000000000006,1,d,d,1,1,670.5,k,k,1,memory_color_short,-0.5,-0.5,0.4035000000000001,FALSE,FALSE,FALSE,FALSE
NA,0.2,NA,NA,NA,NA,NA,NA,NA,NA,j,red,558812eefdf99b14f004b722,2021-09-27_16h11.00.912,forced_choiceRT_color,2021.2.3,Win32,30.0120048,NA,NA,NA,NA,NA,NA,NA,1,Ontime,short,j,1,2.049,6,3,27,2,1,NA,NA,NA,NA,NA,2049,924.5,1,j,j,1,1,631,d,d,1,memory_color_short,-0.5,-0.5,0.9245,FALSE,FALSE,FALSE,FALSE
NA,0.06,NA,NA,NA,NA,NA,NA,NA,NA,j,red,558812eefdf99b14f004b722,2021-09-27_16h11.00.912,forced_choiceRT_color,2021.2.3,Win32,30.0120048,NA,NA,NA,NA,NA,NA,NA,1,Ontime,short,j,1,1.963,7,0,28,2,1,NA,NA,NA,NA,NA,1963,951.5,1,j,j,1,1,924.5,j,j,1,memory_color_short,-0.5,-0.5,0.9515,TRUE,TRUE,TRUE,FALSE
NA,0.59,NA,NA,NA,NA,NA,NA,NA,NA,d,orange,558812eefdf99b14f004b722,2021-09-27_16h11.00.912,forced_choiceRT_color,2021.2.3,Win32,30.0120048,NA,NA,NA,NA,NA,NA,NA,1,Ontime,short,d,1,1.964,7,1,29,0,1,NA,NA,NA,NA,NA,1964,687,1,d,d,1,1,951.5,j,j,1,memory_color_short,-0.5,-0.5,0.687,FALSE,FALSE,FALSE,FALSE
NA,1.05,NA,NA,NA,NA,NA,NA,NA,NA,d,orange,558812eefdf99b14f004b722,2021-09-27_16h11.00.912,forced_choiceRT_color,2021.2.3,Win32,30.0120048,NA,NA,NA,NA,NA,NA,NA,1,Ontime,short,d,1,1.973,7,2,30,0,1,NA,NA,NA,NA,NA,1973,461.5,1,d,d,1,1,687,d,d,1,memory_color_short,-0.5,-0.5,0.4615,TRUE,TRUE,TRUE,FALSE
NA,0.44,NA,NA,NA,NA,NA,NA,NA,NA,j,red,558812eefdf99b14f004b722,2021-09-27_16h11.00.912,forced_choiceRT_color,2021.2.3,Win32,30.0120048,NA,NA,NA,NA,NA,NA,NA,1,Ontime,short,j,1,2.009,7,3,31,2,1,NA,NA,NA,NA,NA,2009,784.5,1,j,j,1,1,461.5,d,d,1,memory_color_short,-0.5,-0.5,0.7845,FALSE,FALSE,FALSE,FALSE
NA,0.12,NA,NA,NA,NA,NA,NA,NA,NA,f,blue,558812eefdf99b14f004b722,2021-09-27_16h11.00.912,forced_choiceRT_color,2021.2.3,Win32,30.0120048,NA,NA,NA,NA,NA,NA,NA,1,Ontime,short,f,1,1.934,8,1,33,1,1,NA,NA,NA,NA,NA,1934,907,1,f,f,1,1,544.9999999999999,f,f,1,memory_color_short,-0.5,-0.5,0.907,TRUE,TRUE,TRUE,FALSE
NA,0.71,NA,NA,NA,NA,NA,NA,NA,NA,k,purple,558812eefdf99b14f004b722,2021-09-27_16h11.00.912,forced_choiceRT_color,2021.2.3,Win32,30.0120048,NA,NA,NA,NA,NA,NA,NA,1,Ontime,short,k,1,1.976,8,2,34,3,1,NA,NA,NA,NA,NA,1976,633,1,k,k,1,1,907,f,f,1,memory_color_short,-0.5,-0.5,0.633,FALSE,FALSE,FALSE,FALSE
NA,1.53,NA,NA,NA,NA,NA,NA,NA,NA,j,red,558812eefdf99b14f004b722,2021-09-27_16h11.00.912,forced_choiceRT_color,2021.2.3,Win32,30.0120048,NA,NA,NA,NA,NA,NA,NA,1,Ontime,short,d,0,2.073,8,3,35,2,1,NA,NA,NA,NA,NA,2073,271.49999999999994,0,d,j,1,1,633,k,k,0,memory_color_short,-0.5,-0.5,0.27149999999999996,FALSE,FALSE,FALSE,FALSE
NA,0.2,NA,NA,NA,NA,NA,NA,NA,NA,j,red,558812eefdf99b14f004b722,2021-09-27_16h11.00.912,forced_choiceRT_color,2021.2.3,Win32,30.0120048,NA,NA,NA,NA,NA,NA,NA,1,Ontime,short,j,1,1.981,9,1,37,2,1,NA,NA,NA,NA,NA,1981,890.5000000000001,1,j,j,0,0,207.50000000000014,f,j,1,memory_color_short,0.5,0.5,0.8905000000000001,FALSE,TRUE,FALSE,FALSE
NA,1.01,NA,NA,NA,NA,NA,NA,NA,NA,d,orange,558812eefdf99b14f004b722,2021-09-27_16h11.00.912,forced_choiceRT_color,2021.2.3,Win32,30.0120048,NA,NA,NA,NA,NA,NA,NA,1,Ontime,short,d,1,2.01,9,2,38,0,1,NA,NA,NA,NA,NA,2009.9999999999998,499.9999999999999,1,d,d,0,1,890.5000000000001,j,j,1,memory_color_short,0.5,-0.5,0.4999999999999999,FALSE,FALSE,FALSE,FALSE
NA,0.79,NA,NA,NA,NA,NA,NA,NA,NA,j,red,558812eefdf99b14f004b722,2021-09-27_16h11.00.912,forced_choiceRT_color,2021.2.3,Win32,30.0120048,NA,NA,NA,NA,NA,NA,NA,1,Ontime,short,j,1,2.014,9,3,39,2,1,NA,NA,NA,NA,NA,2013.9999999999998,611.9999999999999,1,j,j,1,1,499.9999999999999,d,d,1,memory_color_short,-0.5,-0.5,0.6119999999999999,FALSE,FALSE,FALSE,FALSE
NA,0.65,NA,NA,NA,NA,NA,NA,NA,NA,f,blue,558812eefdf99b14f004b722,2021-09-27_16h11.00.912,forced_choiceRT_color,2021.2.3,Win32,30.0120048,NA,NA,NA,NA,NA,NA,NA,2,Ontime,short,f,1,2.011,0,1,1,1,1,NA,NA,NA,NA,NA,2011.0000000000002,680.5000000000001,1,f,f,1,1,392.49999999999994,j,j,1,memory_color_short,-0.5,-0.5,0.6805000000000001,FALSE,FALSE,FALSE,FALSE
NA,1.88,NA,NA,NA,NA,NA,NA,NA,NA,j,red,558812eefdf99b14f004b722,2021-09-27_16h11.00.912,forced_choiceRT_color,2021.2.3,Win32,30.0120048,NA,NA,NA,NA,NA,NA,NA,2,Ontime,short,d,0,2.086,0,2,2,2,1,NA,NA,NA,NA,NA,2086,102.99999999999999,0,d,j,1,1,680.5000000000001,f,f,0,memory_color_short,-0.5,-0.5,0.10299999999999998,FALSE,FALSE,FALSE,FALSE
NA,1.23,NA,NA,NA,NA,NA,NA,NA,NA,f,blue,558812eefdf99b14f004b722,2021-09-27_16h11.00.912,forced_choiceRT_color,2021.2.3,Win32,30.0120048,NA,NA,NA,NA,NA,NA,NA,2,Ontime,short,d,0,2.069,0,3,3,1,1,NA,NA,NA,NA,NA,2069,419.5,0,d,f,1,0,102.99999999999999,d,j,0,memory_color_short,-0.5,0.5,0.4195,TRUE,FALSE,FALSE,FALSE
NA,1.59,NA,NA,NA,NA,NA,NA,NA,NA,d,orange,558812eefdf99b14f004b722,2021-09-27_16h11.00.912,forced_choiceRT_color,2021.2.3,Win32,30.0120048,NA,NA,NA,NA,NA,NA,NA,2,Ontime,short,d,1,1.987,1,1,5,0,1,NA,NA,NA,NA,NA,1987,198.5,1,d,d,0,1,-955.5,j,j,1,memory_color_short,0.5,-0.5,0.1985,FALSE,FALSE,FALSE,TRUE
NA,1.45,NA,NA,NA,NA,NA,NA,NA,NA,k,purple,558812eefdf99b14f004b722,2021-09-27_16h11.00.912,forced_choiceRT_color,2021.2.3,Win32,30.0120048,NA,NA,NA,NA,NA,NA,NA,2,Ontime,short,j,0,1.974,1,2,6,3,1,NA,NA,NA,NA,NA,1974,262,0,j,k,1,1,198.5,d,d,0,memory_color_short,-0.5,-0.5,0.262,FALSE,FALSE,FALSE,FALSE
NA,0.62,NA,NA,NA,NA,NA,NA,NA,NA,k,purple,558812eefdf99b14f004b722,2021-09-27_16h11.00.912,forced_choiceRT_color,2021.2.3,Win32,30.0120048,NA,NA,NA,NA,NA,NA,NA,2,Ontime,short,k,1,2.006,2,0,8,3,1,NA,NA,NA,NA,NA,2005.9999999999998,692.9999999999999,1,k,k,0,0,-21.5,k,j,1,memory_color_short,0.5,0.5,0.6929999999999998,TRUE,FALSE,TRUE,TRUE
NA,1.01,NA,NA,NA,NA,NA,NA,NA,NA,f,blue,558812eefdf99b14f004b722,2021-09-27_16h11.00.912,forced_choiceRT_color,2021.2.3,Win32,30.0120048,NA,NA,NA,NA,NA,NA,NA,2,Ontime,short,j,0,2.089,2,1,9,1,1,NA,NA,NA,NA,NA,2089,539.5,0,j,f,0,1,692.9999999999999,k,k,0,memory_color_short,0.5,-0.5,0.5395,FALSE,FALSE,FALSE,FALSE
NA,0.96,NA,NA,NA,NA,NA,NA,NA,NA,f,blue,558812eefdf99b14f004b722,2021-09-27_16h11.00.912,forced_choiceRT_color,2021.2.3,Win32,30.0120048,NA,NA,NA,NA,NA,NA,NA,2,Ontime,short,f,1,2.029,2,2,10,1,1,NA,NA,NA,NA,NA,2029,534.5,1,f,f,1,0,539.5,j,f,1,memory_color_short,-0.5,0.5,0.5345,FALSE,TRUE,FALSE,FALSE
NA,1.05,NA,NA,NA,NA,NA,NA,NA,NA,f,blue,558812eefdf99b14f004b722,2021-09-27_16h11.00.912,forced_choiceRT_color,2021.2.3,Win32,30.0120048,NA,NA,NA,NA,NA,NA,NA,2,Ontime,short,f,1,1.96,2,3,11,1,1,NA,NA,NA,NA,NA,1960,454.99999999999994,1,f,f,0,1,534.5,f,f,1,memory_color_short,0.5,-0.5,0.45499999999999996,TRUE,TRUE,TRUE,FALSE
NA,1.5,NA,NA,NA,NA,NA,NA,NA,NA,d,orange,558812eefdf99b14f004b722,2021-09-27_16h11.00.912,forced_choiceRT_color,2021.2.3,Win32,30.0120048,NA,NA,NA,NA,NA,NA,NA,2,Ontime,short,k,0,1.999,3,0,12,0,1,NA,NA,NA,NA,NA,1999,249.50000000000006,0,k,d,1,1,454.99999999999994,f,f,0,memory_color_short,-0.5,-0.5,0.24950000000000006,FALSE,FALSE,FALSE,FALSE
NA,1.8,NA,NA,NA,NA,NA,NA,NA,NA,j,red,558812eefdf99b14f004b722,2021-09-27_16h11.00.912,forced_choiceRT_color,2021.2.3,Win32,30.0120048,NA,NA,NA,NA,NA,NA,NA,2,Ontime,short,d,0,2.092,3,2,14,2,1,NA,NA,NA,NA,NA,2092,146.00000000000003,0,d,j,0,0,-669.9999999999999,f,d,0,memory_color_short,0.5,0.5,0.14600000000000002,FALSE,FALSE,FALSE,TRUE
NA,0.13,NA,NA,NA,NA,NA,NA,NA,NA,f,blue,558812eefdf99b14f004b722,2021-09-27_16h11.00.912,forced_choiceRT_color,2021.2.3,Win32,30.0120048,NA,NA,NA,NA,NA,NA,NA,2,Ontime,short,f,1,1.981,3,3,15,1,1,NA,NA,NA,NA,NA,1981,925.5,1,f,f,0,0,146.00000000000003,d,j,1,memory_color_short,0.5,0.5,0.9255,FALSE,FALSE,FALSE,FALSE
NA,1.09,NA,NA,NA,NA,NA,NA,NA,NA,k,purple,558812eefdf99b14f004b722,2021-09-27_16h11.00.912,forced_choiceRT_color,2021.2.3,Win32,30.0120048,NA,NA,NA,NA,NA,NA,NA,2,Ontime,short,k,1,2.08,4,0,16,3,1,NA,NA,NA,NA,NA,2080,495,1,k,k,0,1,925.5,f,f,1,memory_color_short,0.5,-0.5,0.495,FALSE,FALSE,FALSE,FALSE
NA,0.9,NA,NA,NA,NA,NA,NA,NA,NA,d,orange,558812eefdf99b14f004b722,2021-09-27_16h11.00.912,forced_choiceRT_color,2021.2.3,Win32,30.0120048,NA,NA,NA,NA,NA,NA,NA,2,Ontime,short,d,1,1.98,4,2,18,0,1,NA,NA,NA,NA,NA,1980,540,1,d,d,1,0,87.49999999999991,k,j,1,memory_color_short,-0.5,0.5,0.54,FALSE,FALSE,FALSE,TRUE
NA,1.43,NA,NA,NA,NA,NA,NA,NA,NA,k,purple,558812eefdf99b14f004b722,2021-09-27_16h11.00.912,forced_choiceRT_color,2021.2.3,Win32,30.0120048,NA,NA,NA,NA,NA,NA,NA,2,Ontime,short,k,1,2.017,4,3,19,3,1,NA,NA,NA,NA,NA,2017,293.5,1,k,k,0,1,540,d,d,1,memory_color_short,0.5,-0.5,0.2935,FALSE,FALSE,FALSE,FALSE
NA,0.74,NA,NA,NA,NA,NA,NA,NA,NA,d,orange,558812eefdf99b14f004b722,2021-09-27_16h11.00.912,forced_choiceRT_color,2021.2.3,Win32,30.0120048,NA,NA,NA,NA,NA,NA,NA,2,Ontime,short,d,1,1.97,5,0,20,0,1,NA,NA,NA,NA,NA,1970,615,1,d,d,1,1,293.5,k,k,1,memory_color_short,-0.5,-0.5,0.615,FALSE,FALSE,FALSE,FALSE
NA,0.23,NA,NA,NA,NA,NA,NA,NA,NA,f,blue,558812eefdf99b14f004b722,2021-09-27_16h11.00.912,forced_choiceRT_color,2021.2.3,Win32,30.0120048,NA,NA,NA,NA,NA,NA,NA,2,Ontime,short,k,0,2.032,5,1,21,1,1,NA,NA,NA,NA,NA,2032,901,0,k,f,1,1,615,d,d,0,memory_color_short,-0.5,-0.5,0.901,FALSE,FALSE,FALSE,FALSE
NA,0.02,NA,NA,NA,NA,NA,NA,NA,NA,j,red,558812eefdf99b14f004b722,2021-09-27_16h11.00.912,forced_choiceRT_color,2021.2.3,Win32,30.0120048,NA,NA,NA,NA,NA,NA,NA,2,Ontime,short,j,1,1.919,5,2,22,2,1,NA,NA,NA,NA,NA,1919,949.5,1,j,j,1,0,901,k,f,1,memory_color_short,-0.5,0.5,0.9495,FALSE,FALSE,FALSE,FALSE
NA,1.15,NA,NA,NA,NA,NA,NA,NA,NA,f,blue,558812eefdf99b14f004b722,2021-09-27_16h11.00.912,forced_choiceRT_color,2021.2.3,Win32,30.0120048,NA,NA,NA,NA,NA,NA,NA,2,Ontime,short,f,1,2.025,5,3,23,1,1,NA,NA,NA,NA,NA,2025,437.5,1,f,f,0,1,949.5,j,j,1,memory_color_short,0.5,-0.5,0.4375,FALSE,FALSE,FALSE,FALSE
NA,1.42,NA,NA,NA,NA,NA,NA,NA,NA,k,purple,558812eefdf99b14f004b722,2021-09-27_16h11.00.912,forced_choiceRT_color,2021.2.3,Win32,30.0120048,NA,NA,NA,NA,NA,NA,NA,2,Ontime,short,k,1,2.057,6,0,24,3,1,NA,NA,NA,NA,NA,2057,318.5,1,k,k,1,1,437.5,f,f,1,memory_color_short,-0.5,-0.5,0.3185,FALSE,FALSE,FALSE,FALSE
NA,1.1,NA,NA,NA,NA,NA,NA,NA,NA,d,orange,558812eefdf99b14f004b722,2021-09-27_16h11.00.912,forced_choiceRT_color,2021.2.3,Win32,30.0120048,NA,NA,NA,NA,NA,NA,NA,2,Ontime,short,d,1,1.96,6,1,25,0,1,NA,NA,NA,NA,NA,1960,429.99999999999994,1,d,d,1,1,318.5,k,k,1,memory_color_short,-0.5,-0.5,0.42999999999999994,FALSE,FALSE,FALSE,FALSE
NA,1.4,NA,NA,NA,NA,NA,NA,NA,NA,j,red,558812eefdf99b14f004b722,2021-09-27_16h11.00.912,forced_choiceRT_color,2021.2.3,Win32,30.0120048,NA,NA,NA,NA,NA,NA,NA,2,Ontime,short,j,1,2.013,6,2,26,2,1,NA,NA,NA,NA,NA,2013,306.5,1,j,j,1,1,429.99999999999994,d,d,1,memory_color_short,-0.5,-0.5,0.3065,FALSE,FALSE,FALSE,FALSE
NA,0.19,NA,NA,NA,NA,NA,NA,NA,NA,k,purple,558812eefdf99b14f004b722,2021-09-27_16h11.00.912,forced_choiceRT_color,2021.2.3,Win32,30.0120048,NA,NA,NA,NA,NA,NA,NA,2,Ontime,short,k,1,1.942,7,0,28,3,1,NA,NA,NA,NA,NA,1942,876,1,k,k,1,0,127,k,f,1,memory_color_short,-0.5,0.5,0.876,TRUE,FALSE,TRUE,FALSE
NA,1.22,NA,NA,NA,NA,NA,NA,NA,NA,d,orange,558812eefdf99b14f004b722,2021-09-27_16h11.00.912,forced_choiceRT_color,2021.2.3,Win32,30.0120048,NA,NA,NA,NA,NA,NA,NA,2,Ontime,short,d,1,2.04,7,1,29,0,1,NA,NA,NA,NA,NA,2040,410.00000000000006,1,d,d,0,1,876,k,k,1,memory_color_short,0.5,-0.5,0.41000000000000003,FALSE,FALSE,FALSE,FALSE
NA,0.32,NA,NA,NA,NA,NA,NA,NA,NA,j,red,558812eefdf99b14f004b722,2021-09-27_16h11.00.912,forced_choiceRT_color,2021.2.3,Win32,30.0120048,NA,NA,NA,NA,NA,NA,NA,2,Ontime,short,j,1,1.922,7,2,30,2,1,NA,NA,NA,NA,NA,1922,800.9999999999999,1,j,j,1,1,410.00000000000006,d,d,1,memory_color_short,-0.5,-0.5,0.8009999999999999,FALSE,FALSE,FALSE,FALSE
NA,0.74,NA,NA,NA,NA,NA,NA,NA,NA,f,blue,558812eefdf99b14f004b722,2021-09-27_16h11.00.912,forced_choiceRT_color,2021.2.3,Win32,30.0120048,NA,NA,NA,NA,NA,NA,NA,2,Ontime,short,j,0,1.972,8,1,33,1,1,NA,NA,NA,NA,NA,1972,616,0,j,f,1,1,304.99999999999994,k,k,0,memory_color_short,-0.5,-0.5,0.616,FALSE,FALSE,FALSE,FALSE
NA,0.02,NA,NA,NA,NA,NA,NA,NA,NA,k,purple,558812eefdf99b14f004b722,2021-09-27_16h11.00.912,forced_choiceRT_color,2021.2.3,Win32,30.0120048,NA,NA,NA,NA,NA,NA,NA,2,Ontime,short,k,1,1.998,8,2,34,3,1,NA,NA,NA,NA,NA,1998,989,1,k,k,1,0,616,j,f,1,memory_color_short,-0.5,0.5,0.989,FALSE,FALSE,FALSE,FALSE
NA,1.57,NA,NA,NA,NA,NA,NA,NA,NA,k,purple,558812eefdf99b14f004b722,2021-09-27_16h11.00.912,forced_choiceRT_color,2021.2.3,Win32,30.0120048,NA,NA,NA,NA,NA,NA,NA,2,Ontime,short,k,1,2.004,8,3,35,3,1,NA,NA,NA,NA,NA,2004,216.99999999999997,1,k,k,0,1,989,k,k,1,memory_color_short,0.5,-0.5,0.21699999999999997,TRUE,TRUE,TRUE,FALSE
NA,1.01,NA,NA,NA,NA,NA,NA,NA,NA,d,orange,558812eefdf99b14f004b722,2021-09-27_16h11.00.912,forced_choiceRT_color,2021.2.3,Win32,30.0120048,NA,NA,NA,NA,NA,NA,NA,2,Ontime,short,d,1,1.995,9,0,36,0,1,NA,NA,NA,NA,NA,1995,492.50000000000006,1,d,d,1,1,216.99999999999997,k,k,1,memory_color_short,-0.5,-0.5,0.49250000000000005,FALSE,FALSE,FALSE,FALSE
NA,0.28,NA,NA,NA,NA,NA,NA,NA,NA,j,red,558812eefdf99b14f004b722,2021-09-27_16h11.00.912,forced_choiceRT_color,2021.2.3,Win32,30.0120048,NA,NA,NA,NA,NA,NA,NA,2,Ontime,short,j,1,1.918,9,1,37,2,1,NA,NA,NA,NA,NA,1918,819,1,j,j,1,1,492.50000000000006,d,d,1,memory_color_short,-0.5,-0.5,0.819,FALSE,FALSE,FALSE,FALSE
NA,1.51,NA,NA,NA,NA,NA,NA,NA,NA,d,orange,558812eefdf99b14f004b722,2021-09-27_16h11.00.912,forced_choiceRT_color,2021.2.3,Win32,30.0120048,NA,NA,NA,NA,NA,NA,NA,2,Ontime,short,d,1,2.04,9,3,39,0,1,NA,NA,NA,NA,NA,2040,265,1,d,d,1,1,525.5000000000001,d,d,1,memory_color_short,-0.5,-0.5,0.265,TRUE,TRUE,TRUE,FALSE
NA,0.36,NA,NA,NA,NA,NA,NA,NA,NA,k,purple,558812eefdf99b14f004b722,2021-09-27_16h11.00.912,forced_choiceRT_color,2021.2.3,Win32,30.0120048,NA,NA,NA,NA,NA,NA,NA,3,Ontime,short,k,1,2.071,0,0,0,3,1,NA,NA,NA,NA,NA,2071,855.5000000000001,1,k,k,1,1,265,d,d,1,memory_color_short,-0.5,-0.5,0.8555000000000001,FALSE,FALSE,FALSE,FALSE
NA,1.32,NA,NA,NA,NA,NA,NA,NA,NA,d,orange,558812eefdf99b14f004b722,2021-09-27_16h11.00.912,forced_choiceRT_color,2021.2.3,Win32,30.0120048,NA,NA,NA,NA,NA,NA,NA,3,Ontime,short,d,1,2.067,0,1,1,0,1,NA,NA,NA,NA,NA,2067,373.50000000000006,1,d,d,1,1,855.5000000000001,k,k,1,memory_color_short,-0.5,-0.5,0.37350000000000005,FALSE,FALSE,FALSE,FALSE
NA,0.18,NA,NA,NA,NA,NA,NA,NA,NA,k,purple,558812eefdf99b14f004b722,2021-09-27_16h11.00.912,forced_choiceRT_color,2021.2.3,Win32,30.0120048,NA,NA,NA,NA,NA,NA,NA,3,Ontime,short,k,1,1.954,0,3,3,3,1,NA,NA,NA,NA,NA,1954,887,1,k,k,1,1,297.5,k,k,1,memory_color_short,-0.5,-0.5,0.887,TRUE,TRUE,TRUE,FALSE
NA,1.41,NA,NA,NA,NA,NA,NA,NA,NA,d,orange,558812eefdf99b14f004b722,2021-09-27_16h11.00.912,forced_choiceRT_color,2021.2.3,Win32,30.0120048,NA,NA,NA,NA,NA,NA,NA,3,Ontime,short,d,1,1.967,1,1,5,0,1,NA,NA,NA,NA,NA,1967,278.50000000000006,1,d,d,1,1,357.50000000000006,k,k,1,memory_color_short,-0.5,-0.5,0.2785000000000001,FALSE,FALSE,FALSE,FALSE
NA,0.05,NA,NA,NA,NA,NA,NA,NA,NA,d,orange,558812eefdf99b14f004b722,2021-09-27_16h11.00.912,forced_choiceRT_color,2021.2.3,Win32,30.0120048,NA,NA,NA,NA,NA,NA,NA,3,Ontime,short,d,1,1.955,1,3,7,0,1,NA,NA,NA,NA,NA,1955,952.5,1,d,d,1,1,-411,j,j,1,memory_color_short,-0.5,-0.5,0.9525,FALSE,FALSE,FALSE,TRUE
NA,0.62,NA,NA,NA,NA,NA,NA,NA,NA,f,blue,558812eefdf99b14f004b722,2021-09-27_16h11.00.912,forced_choiceRT_color,2021.2.3,Win32,30.0120048,NA,NA,NA,NA,NA,NA,NA,3,Ontime,short,f,1,1.952,2,1,9,1,1,NA,NA,NA,NA,NA,1952,665.9999999999999,1,f,f,1,0,471.49999999999994,k,f,1,memory_color_short,-0.5,0.5,0.6659999999999999,FALSE,TRUE,FALSE,FALSE
NA,0.78,NA,NA,NA,NA,NA,NA,NA,NA,j,red,558812eefdf99b14f004b722,2021-09-27_16h11.00.912,forced_choiceRT_color,2021.2.3,Win32,30.0120048,NA,NA,NA,NA,NA,NA,NA,3,Ontime,short,j,1,1.989,2,2,10,2,1,NA,NA,NA,NA,NA,1989,604.5,1,j,j,0,1,665.9999999999999,f,f,1,memory_color_short,0.5,-0.5,0.6045,FALSE,FALSE,FALSE,FALSE
NA,1.17,NA,NA,NA,NA,NA,NA,NA,NA,f,blue,558812eefdf99b14f004b722,2021-09-27_16h11.00.912,forced_choiceRT_color,2021.2.3,Win32,30.0120048,NA,NA,NA,NA,NA,NA,NA,3,Ontime,short,j,0,1.97,3,2,14,1,1,NA,NA,NA,NA,NA,1970,400,0,j,f,1,0,338.00000000000006,j,f,0,memory_color_short,-0.5,0.5,0.4,TRUE,TRUE,FALSE,FALSE
NA,1,NA,NA,NA,NA,NA,NA,NA,NA,k,purple,558812eefdf99b14f004b722,2021-09-27_16h11.00.912,forced_choiceRT_color,2021.2.3,Win32,30.0120048,NA,NA,NA,NA,NA,NA,NA,3,Ontime,short,k,1,2.038,4,0,16,3,1,NA,NA,NA,NA,NA,2037.9999999999998,518.9999999999999,1,k,k,0,0,-533.5,d,j,1,memory_color_short,0.5,0.5,0.5189999999999999,FALSE,FALSE,FALSE,TRUE
NA,0.2,NA,NA,NA,NA,NA,NA,NA,NA,j,red,558812eefdf99b14f004b722,2021-09-27_16h11.00.912,forced_choiceRT_color,2021.2.3,Win32,30.0120048,NA,NA,NA,NA,NA,NA,NA,3,Ontime,short,j,1,2.006,4,1,17,2,1,NA,NA,NA,NA,NA,2005.9999999999998,902.9999999999999,1,j,j,0,1,518.9999999999999,k,k,1,memory_color_short,0.5,-0.5,0.9029999999999999,FALSE,FALSE,FALSE,FALSE
NA,1.25,NA,NA,NA,NA,NA,NA,NA,NA,j,red,558812eefdf99b14f004b722,2021-09-27_16h11.00.912,forced_choiceRT_color,2021.2.3,Win32,30.0120048,NA,NA,NA,NA,NA,NA,NA,3,Ontime,short,d,0,2.022,4,3,19,2,1,NA,NA,NA,NA,NA,2021.9999999999998,385.9999999999999,0,d,j,1,1,1004.5000000000002,f,f,0,memory_color_short,-0.5,-0.5,0.3859999999999999,FALSE,FALSE,FALSE,FALSE
NA,1.59,NA,NA,NA,NA,NA,NA,NA,NA,f,blue,558812eefdf99b14f004b722,2021-09-27_16h11.00.912,forced_choiceRT_color,2021.2.3,Win32,30.0120048,NA,NA,NA,NA,NA,NA,NA,3,Ontime,short,d,0,2.085,5,0,20,1,1,NA,NA,NA,NA,NA,2085,247.49999999999994,0,d,f,1,0,385.9999999999999,d,j,0,memory_color_short,-0.5,0.5,0.24749999999999994,TRUE,FALSE,FALSE,FALSE
NA,0.23,NA,NA,NA,NA,NA,NA,NA,NA,k,purple,558812eefdf99b14f004b722,2021-09-27_16h11.00.912,forced_choiceRT_color,2021.2.3,Win32,30.0120048,NA,NA,NA,NA,NA,NA,NA,3,Ontime,short,k,1,2.032,5,1,21,3,1,NA,NA,NA,NA,NA,2032,901,1,k,k,0,0,247.49999999999994,d,f,1,memory_color_short,0.5,0.5,0.901,FALSE,FALSE,FALSE,FALSE
NA,1.18,NA,NA,NA,NA,NA,NA,NA,NA,d,orange,558812eefdf99b14f004b722,2021-09-27_16h11.00.912,forced_choiceRT_color,2021.2.3,Win32,30.0120048,NA,NA,NA,NA,NA,NA,NA,3,Ontime,short,j,0,2.03,5,2,22,0,1,NA,NA,NA,NA,NA,2029.9999999999998,424.99999999999994,0,j,d,0,1,901,k,k,0,memory_color_short,0.5,-0.5,0.42499999999999993,FALSE,FALSE,FALSE,FALSE
NA,0.46,NA,NA,NA,NA,NA,NA,NA,NA,d,orange,558812eefdf99b14f004b722,2021-09-27_16h11.00.912,forced_choiceRT_color,2021.2.3,Win32,30.0120048,NA,NA,NA,NA,NA,NA,NA,3,Ontime,short,d,1,1.979,5,3,23,0,1,NA,NA,NA,NA,NA,1979,759.5000000000001,1,d,d,1,0,424.99999999999994,j,d,1,memory_color_short,-0.5,0.5,0.7595000000000001,FALSE,TRUE,FALSE,FALSE
NA,0.68,NA,NA,NA,NA,NA,NA,NA,NA,k,purple,558812eefdf99b14f004b722,2021-09-27_16h11.00.912,forced_choiceRT_color,2021.2.3,Win32,30.0120048,NA,NA,NA,NA,NA,NA,NA,3,Ontime,short,k,1,1.997,6,0,24,3,1,NA,NA,NA,NA,NA,1997,658.5000000000001,1,k,k,0,1,759.5000000000001,d,d,1,memory_color_short,0.5,-0.5,0.6585000000000001,FALSE,FALSE,FALSE,FALSE
NA,0.72,NA,NA,NA,NA,NA,NA,NA,NA,j,red,558812eefdf99b14f004b722,2021-09-27_16h11.00.912,forced_choiceRT_color,2021.2.3,Win32,30.0120048,NA,NA,NA,NA,NA,NA,NA,3,Ontime,short,j,1,2.06,6,2,26,2,1,NA,NA,NA,NA,NA,2060,670,1,j,j,1,0,553.9999999999999,j,f,1,memory_color_short,-0.5,0.5,0.67,TRUE,FALSE,TRUE,FALSE
NA,0.44,NA,NA,NA,NA,NA,NA,NA,NA,k,purple,558812eefdf99b14f004b722,2021-09-27_16h11.00.912,forced_choiceRT_color,2021.2.3,Win32,30.0120048,NA,NA,NA,NA,NA,NA,NA,3,Ontime,short,k,1,2.093,6,3,27,3,1,NA,NA,NA,NA,NA,2093,826.5,1,k,k,0,1,670,j,j,1,memory_color_short,0.5,-0.5,0.8265,FALSE,FALSE,FALSE,FALSE
NA,0.83,NA,NA,NA,NA,NA,NA,NA,NA,f,blue,558812eefdf99b14f004b722,2021-09-27_16h11.00.912,forced_choiceRT_color,2021.2.3,Win32,30.0120048,NA,NA,NA,NA,NA,NA,NA,3,Ontime,short,f,1,1.917,7,1,29,1,1,NA,NA,NA,NA,NA,1917,543.5000000000001,1,f,f,1,0,146.99999999999991,k,j,1,memory_color_short,-0.5,0.5,0.5435000000000001,FALSE,FALSE,FALSE,FALSE
NA,1.87,NA,NA,NA,NA,NA,NA,NA,NA,k,purple,558812eefdf99b14f004b722,2021-09-27_16h11.00.912,forced_choiceRT_color,2021.2.3,Win32,30.0120048,NA,NA,NA,NA,NA,NA,NA,3,Ontime,short,d,0,2.021,7,2,30,3,1,NA,NA,NA,NA,NA,2021,75.4999999999999,0,d,k,0,1,543.5000000000001,f,f,0,memory_color_short,0.5,-0.5,0.0754999999999999,FALSE,FALSE,FALSE,FALSE
NA,1.58,NA,NA,NA,NA,NA,NA,NA,NA,k,purple,558812eefdf99b14f004b722,2021-09-27_16h11.00.912,forced_choiceRT_color,2021.2.3,Win32,30.0120048,NA,NA,NA,NA,NA,NA,NA,3,Ontime,short,k,1,1.959,7,3,31,3,1,NA,NA,NA,NA,NA,1959,189.5,1,k,k,1,0,75.4999999999999,d,k,1,memory_color_short,-0.5,0.5,0.1895,FALSE,TRUE,FALSE,TRUE
NA,1.42,NA,NA,NA,NA,NA,NA,NA,NA,d,orange,558812eefdf99b14f004b722,2021-09-27_16h11.00.912,forced_choiceRT_color,2021.2.3,Win32,30.0120048,NA,NA,NA,NA,NA,NA,NA,3,Ontime,short,f,0,1.961,8,0,32,0,1,NA,NA,NA,NA,NA,1961,270.50000000000006,0,f,d,0,1,189.5,k,k,0,memory_color_short,0.5,-0.5,0.2705000000000001,FALSE,FALSE,FALSE,FALSE
NA,0.9,NA,NA,NA,NA,NA,NA,NA,NA,f,blue,558812eefdf99b14f004b722,2021-09-27_16h11.00.912,forced_choiceRT_color,2021.2.3,Win32,30.0120048,NA,NA,NA,NA,NA,NA,NA,3,Ontime,short,f,1,2.072,8,1,33,1,1,NA,NA,NA,NA,NA,2072,586.0000000000001,1,f,f,1,0,270.50000000000006,f,d,1,memory_color_short,-0.5,0.5,0.5860000000000001,TRUE,FALSE,TRUE,FALSE
NA,1.13,NA,NA,NA,NA,NA,NA,NA,NA,d,orange,558812eefdf99b14f004b722,2021-09-27_16h11.00.912,forced_choiceRT_color,2021.2.3,Win32,30.0120048,NA,NA,NA,NA,NA,NA,NA,3,Ontime,short,d,1,2.028,8,3,35,0,1,NA,NA,NA,NA,NA,2028,449.00000000000006,1,d,d,1,1,367.50000000000006,d,d,1,memory_color_short,-0.5,-0.5,0.44900000000000007,TRUE,TRUE,TRUE,FALSE
NA,1.19,NA,NA,NA,NA,NA,NA,NA,NA,j,red,558812eefdf99b14f004b722,2021-09-27_16h11.00.912,forced_choiceRT_color,2021.2.3,Win32,30.0120048,NA,NA,NA,NA,NA,NA,NA,3,Ontime,short,j,1,2.097,9,0,36,2,1,NA,NA,NA,NA,NA,2097,453.5,1,j,j,1,1,449.00000000000006,d,d,1,memory_color_short,-0.5,-0.5,0.4535,FALSE,FALSE,FALSE,FALSE
NA,0.64,NA,NA,NA,NA,NA,NA,NA,NA,d,orange,558812eefdf99b14f004b722,2021-09-27_16h11.00.912,forced_choiceRT_color,2021.2.3,Win32,30.0120048,NA,NA,NA,NA,NA,NA,NA,3,Ontime,short,d,1,2.041,9,2,38,0,1,NA,NA,NA,NA,NA,2041,700.4999999999999,1,d,d,1,1,660.5,f,f,1,memory_color_short,-0.5,-0.5,0.7004999999999999,FALSE,FALSE,FALSE,FALSE
NA,1.19,NA,NA,NA,NA,NA,NA,NA,NA,j,red,558812eefdf99b14f004b722,2021-09-27_16h11.00.912,forced_choiceRT_color,2021.2.3,Win32,30.0120048,NA,NA,NA,NA,NA,NA,NA,3,Ontime,short,k,0,2.088,9,3,39,2,1,NA,NA,NA,NA,NA,2088,449.00000000000006,0,k,j,1,1,700.4999999999999,d,d,0,memory_color_short,-0.5,-0.5,0.44900000000000007,FALSE,FALSE,FALSE,FALSE
NA,1.17,NA,NA,NA,NA,NA,NA,NA,NA,f,blue,558812eefdf99b14f004b722,2021-09-27_16h11.00.912,forced_choiceRT_color,2021.2.3,Win32,30.0120048,NA,NA,NA,NA,NA,NA,NA,4,Ontime,short,f,1,2.015,0,0,0,1,1,NA,NA,NA,NA,NA,2015.0000000000002,422.5000000000001,1,f,f,1,0,449.00000000000006,k,j,1,memory_color_short,-0.5,0.5,0.4225000000000001,FALSE,FALSE,FALSE,FALSE
NA,0.13,NA,NA,NA,NA,NA,NA,NA,NA,f,blue,558812eefdf99b14f004b722,2021-09-27_16h11.00.912,forced_choiceRT_color,2021.2.3,Win32,30.0120048,NA,NA,NA,NA,NA,NA,NA,4,Ontime,short,f,1,1.992,0,1,1,1,1,NA,NA,NA,NA,NA,1992,931,1,f,f,0,1,422.5000000000001,f,f,1,memory_color_short,0.5,-0.5,0.931,TRUE,TRUE,TRUE,FALSE
NA,1.04,NA,NA,NA,NA,NA,NA,NA,NA,j,red,558812eefdf99b14f004b722,2021-09-27_16h11.00.912,forced_choiceRT_color,2021.2.3,Win32,30.0120048,NA,NA,NA,NA,NA,NA,NA,4,Ontime,short,j,1,2.034,0,2,2,2,1,NA,NA,NA,NA,NA,2033.9999999999998,496.9999999999999,1,j,j,1,1,931,f,f,1,memory_color_short,-0.5,-0.5,0.4969999999999999,FALSE,FALSE,FALSE,FALSE
NA,0.3,NA,NA,NA,NA,NA,NA,NA,NA,d,orange,558812eefdf99b14f004b722,2021-09-27_16h11.00.912,forced_choiceRT_color,2021.2.3,Win32,30.0120048,NA,NA,NA,NA,NA,NA,NA,4,Ontime,short,d,1,2.023,0,3,3,0,1,NA,NA,NA,NA,NA,2023.0000000000002,861.5,1,d,d,1,1,496.9999999999999,j,j,1,memory_color_short,-0.5,-0.5,0.8615,FALSE,FALSE,FALSE,FALSE
NA,0.67,NA,NA,NA,NA,NA,NA,NA,NA,k,purple,558812eefdf99b14f004b722,2021-09-27_16h11.00.912,forced_choiceRT_color,2021.2.3,Win32,30.0120048,NA,NA,NA,NA,NA,NA,NA,4,Ontime,short,f,0,2.014,1,2,6,3,1,NA,NA,NA,NA,NA,2013.9999999999998,671.9999999999999,0,f,k,1,0,244.9999999999999,k,j,0,memory_color_short,-0.5,0.5,0.6719999999999999,FALSE,FALSE,TRUE,FALSE
NA,0.59,NA,NA,NA,NA,NA,NA,NA,NA,f,blue,558812eefdf99b14f004b722,2021-09-27_16h11.00.912,forced_choiceRT_color,2021.2.3,Win32,30.0120048,NA,NA,NA,NA,NA,NA,NA,4,Ontime,short,f,1,2.013,2,0,8,1,1,NA,NA,NA,NA,NA,2013,711.5,1,f,f,0,0,254.0000000000001,k,d,1,memory_color_short,0.5,0.5,0.7115,FALSE,FALSE,FALSE,FALSE
NA,0.9,NA,NA,NA,NA,NA,NA,NA,NA,k,purple,558812eefdf99b14f004b722,2021-09-27_16h11.00.912,forced_choiceRT_color,2021.2.3,Win32,30.0120048,NA,NA,NA,NA,NA,NA,NA,4,Ontime,short,k,1,1.995,2,1,9,3,1,NA,NA,NA,NA,NA,1995,547.5000000000001,1,k,k,0,1,711.5,f,f,1,memory_color_short,0.5,-0.5,0.5475000000000001,FALSE,FALSE,FALSE,FALSE
NA,1.86,NA,NA,NA,NA,NA,NA,NA,NA,k,purple,558812eefdf99b14f004b722,2021-09-27_16h11.00.912,forced_choiceRT_color,2021.2.3,Win32,30.0120048,NA,NA,NA,NA,NA,NA,NA,4,Ontime,short,d,0,2.099,2,2,10,3,1,NA,NA,NA,NA,NA,2099,119.50000000000006,0,d,k,1,1,547.5000000000001,k,k,0,memory_color_short,-0.5,-0.5,0.11950000000000005,FALSE,TRUE,TRUE,FALSE
NA,1.17,NA,NA,NA,NA,NA,NA,NA,NA,f,blue,558812eefdf99b14f004b722,2021-09-27_16h11.00.912,forced_choiceRT_color,2021.2.3,Win32,30.0120048,NA,NA,NA,NA,NA,NA,NA,4,Ontime,short,j,0,2.03,2,3,11,1,1,NA,NA,NA,NA,NA,2029.9999999999998,429.99999999999994,0,j,f,1,0,119.50000000000006,d,k,0,memory_color_short,-0.5,0.5,0.42999999999999994,FALSE,FALSE,FALSE,FALSE
NA,1.42,NA,NA,NA,NA,NA,NA,NA,NA,j,red,558812eefdf99b14f004b722,2021-09-27_16h11.00.912,forced_choiceRT_color,2021.2.3,Win32,30.0120048,NA,NA,NA,NA,NA,NA,NA,4,Ontime,short,j,1,2.052,3,0,12,2,1,NA,NA,NA,NA,NA,2052,316.00000000000006,1,j,j,0,0,429.99999999999994,j,f,1,memory_color_short,0.5,0.5,0.31600000000000006,TRUE,FALSE,TRUE,FALSE
NA,0.26,NA,NA,NA,NA,NA,NA,NA,NA,d,orange,558812eefdf99b14f004b722,2021-09-27_16h11.00.912,forced_choiceRT_color,2021.2.3,Win32,30.0120048,NA,NA,NA,NA,NA,NA,NA,4,Ontime,short,d,1,2.045,3,2,14,0,1,NA,NA,NA,NA,NA,2045,892.5,1,d,d,1,1,265.9999999999999,j,j,1,memory_color_short,-0.5,-0.5,0.8925,FALSE,FALSE,FALSE,FALSE
NA,0.56,NA,NA,NA,NA,NA,NA,NA,NA,d,orange,558812eefdf99b14f004b722,2021-09-27_16h11.00.912,forced_choiceRT_color,2021.2.3,Win32,30.0120048,NA,NA,NA,NA,NA,NA,NA,4,Ontime,short,d,1,2.042,3,3,15,0,1,NA,NA,NA,NA,NA,2041.9999999999998,740.9999999999999,1,d,d,1,1,892.5,d,d,1,memory_color_short,-0.5,-0.5,0.7409999999999999,TRUE,TRUE,TRUE,FALSE
NA,0.92,NA,NA,NA,NA,NA,NA,NA,NA,k,purple,558812eefdf99b14f004b722,2021-09-27_16h11.00.912,forced_choiceRT_color,2021.2.3,Win32,30.0120048,NA,NA,NA,NA,NA,NA,NA,4,Ontime,short,k,1,2.054,4,0,16,3,1,NA,NA,NA,NA,NA,2054,567,1,k,k,1,1,740.9999999999999,d,d,1,memory_color_short,-0.5,-0.5,0.567,FALSE,FALSE,FALSE,FALSE
NA,1.02,NA,NA,NA,NA,NA,NA,NA,NA,f,blue,558812eefdf99b14f004b722,2021-09-27_16h11.00.912,forced_choiceRT_color,2021.2.3,Win32,30.0120048,NA,NA,NA,NA,NA,NA,NA,4,Ontime,short,f,1,2.064,4,1,17,1,1,NA,NA,NA,NA,NA,2064,522,1,f,f,1,1,567,k,k,1,memory_color_short,-0.5,-0.5,0.522,FALSE,FALSE,FALSE,FALSE
NA,1.98,NA,NA,NA,NA,NA,NA,NA,NA,k,purple,558812eefdf99b14f004b722,2021-09-27_16h11.00.912,forced_choiceRT_color,2021.2.3,Win32,30.0120048,NA,NA,NA,NA,NA,NA,NA,4,Ontime,short,f,0,2.019,5,1,21,3,1,NA,NA,NA,NA,NA,2019.0000000000002,19.50000000000007,0,f,k,1,1,659,f,f,0,memory_color_short,-0.5,-0.5,0.01950000000000007,TRUE,FALSE,FALSE,FALSE
NA,1.65,NA,NA,NA,NA,NA,NA,NA,NA,f,blue,558812eefdf99b14f004b722,2021-09-27_16h11.00.912,forced_choiceRT_color,2021.2.3,Win32,30.0120048,NA,NA,NA,NA,NA,NA,NA,4,Ontime,short,k,0,2.068,5,2,22,1,1,NA,NA,NA,NA,NA,2068,209.00000000000009,0,k,f,1,0,19.50000000000007,f,k,0,memory_color_short,-0.5,0.5,0.20900000000000007,FALSE,FALSE,TRUE,TRUE
NA,1.29,NA,NA,NA,NA,NA,NA,NA,NA,d,orange,558812eefdf99b14f004b722,2021-09-27_16h11.00.912,forced_choiceRT_color,2021.2.3,Win32,30.0120048,NA,NA,NA,NA,NA,NA,NA,4,Ontime,short,d,1,1.966,6,0,24,0,1,NA,NA,NA,NA,NA,1966,337.99999999999994,1,d,d,0,1,782.9999999999999,d,d,1,memory_color_short,0.5,-0.5,0.33799999999999997,TRUE,TRUE,TRUE,FALSE
NA,0.72,NA,NA,NA,NA,NA,NA,NA,NA,d,orange,558812eefdf99b14f004b722,2021-09-27_16h11.00.912,forced_choiceRT_color,2021.2.3,Win32,30.0120048,NA,NA,NA,NA,NA,NA,NA,4,Ontime,short,d,1,2.018,6,2,26,0,1,NA,NA,NA,NA,NA,2017.9999999999998,648.9999999999999,1,d,d,1,1,1026,k,k,1,memory_color_short,-0.5,-0.5,0.6489999999999999,FALSE,FALSE,FALSE,FALSE
NA,1.05,NA,NA,NA,NA,NA,NA,NA,NA,d,orange,558812eefdf99b14f004b722,2021-09-27_16h11.00.912,forced_choiceRT_color,2021.2.3,Win32,30.0120048,NA,NA,NA,NA,NA,NA,NA,4,Ontime,short,d,1,2.039,6,3,27,0,1,NA,NA,NA,NA,NA,2039.0000000000002,494.50000000000006,1,d,d,1,1,648.9999999999999,d,d,1,memory_color_short,-0.5,-0.5,0.49450000000000005,TRUE,TRUE,TRUE,FALSE
NA,0.38,NA,NA,NA,NA,NA,NA,NA,NA,j,red,558812eefdf99b14f004b722,2021-09-27_16h11.00.912,forced_choiceRT_color,2021.2.3,Win32,30.0120048,NA,NA,NA,NA,NA,NA,NA,4,Ontime,short,j,1,1.998,7,1,29,2,1,NA,NA,NA,NA,NA,1998,808.9999999999999,1,j,j,1,1,490.50000000000006,j,j,1,memory_color_short,-0.5,-0.5,0.8089999999999999,TRUE,TRUE,TRUE,FALSE
NA,1.69,NA,NA,NA,NA,NA,NA,NA,NA,j,red,558812eefdf99b14f004b722,2021-09-27_16h11.00.912,forced_choiceRT_color,2021.2.3,Win32,30.0120048,NA,NA,NA,NA,NA,NA,NA,4,Ontime,short,k,0,2.058,7,3,31,2,1,NA,NA,NA,NA,NA,2058,183.99999999999994,0,k,j,1,1,885.9999999999999,d,d,0,memory_color_short,-0.5,-0.5,0.18399999999999994,FALSE,FALSE,FALSE,FALSE
NA,1.02,NA,NA,NA,NA,NA,NA,NA,NA,f,blue,558812eefdf99b14f004b722,2021-09-27_16h11.00.912,forced_choiceRT_color,2021.2.3,Win32,30.0120048,NA,NA,NA,NA,NA,NA,NA,4,Ontime,short,f,1,2.018,8,1,33,1,1,NA,NA,NA,NA,NA,2017.9999999999998,498.9999999999999,1,f,f,0,1,174.00000000000006,k,k,1,memory_color_short,0.5,-0.5,0.4989999999999999,FALSE,FALSE,FALSE,FALSE
NA,0.28,NA,NA,NA,NA,NA,NA,NA,NA,f,blue,558812eefdf99b14f004b722,2021-09-27_16h11.00.912,forced_choiceRT_color,2021.2.3,Win32,30.0120048,NA,NA,NA,NA,NA,NA,NA,4,Ontime,short,f,1,2.008,8,3,35,1,1,NA,NA,NA,NA,NA,2008,864,1,f,f,1,0,252.49999999999994,k,j,1,memory_color_short,-0.5,0.5,0.864,FALSE,FALSE,FALSE,FALSE
NA,1.14,NA,NA,NA,NA,NA,NA,NA,NA,j,red,558812eefdf99b14f004b722,2021-09-27_16h11.00.912,forced_choiceRT_color,2021.2.3,Win32,30.0120048,NA,NA,NA,NA,NA,NA,NA,4,Ontime,short,j,1,1.979,9,0,36,2,1,NA,NA,NA,NA,NA,1979,419.5000000000001,1,j,j,0,1,864,f,f,1,memory_color_short,0.5,-0.5,0.4195000000000001,FALSE,FALSE,FALSE,FALSE
NA,0.1,NA,NA,NA,NA,NA,NA,NA,NA,k,purple,558812eefdf99b14f004b722,2021-09-27_16h11.00.912,forced_choiceRT_color,2021.2.3,Win32,30.0120048,NA,NA,NA,NA,NA,NA,NA,4,Ontime,short,k,1,2.083,9,1,37,3,1,NA,NA,NA,NA,NA,2083,991.5,1,k,k,1,1,419.5000000000001,j,j,1,memory_color_short,-0.5,-0.5,0.9915,FALSE,FALSE,FALSE,FALSE
NA,0.66,NA,NA,NA,NA,NA,NA,NA,NA,d,orange,558812eefdf99b14f004b722,2021-09-27_16h11.00.912,forced_choiceRT_color,2021.2.3,Win32,30.0120048,NA,NA,NA,NA,NA,NA,NA,4,Ontime,short,d,1,2.026,9,2,38,0,1,NA,NA,NA,NA,NA,2025.9999999999998,682.9999999999998,1,d,d,1,1,991.5,k,k,1,memory_color_short,-0.5,-0.5,0.6829999999999997,FALSE,FALSE,FALSE,FALSE
NA,0.73,NA,NA,NA,NA,NA,NA,NA,NA,j,red,558812eefdf99b14f004b722,2021-09-27_16h11.00.912,forced_choiceRT_color,2021.2.3,Win32,30.0120048,NA,NA,NA,NA,NA,NA,NA,4,Ontime,short,j,1,2.085,9,3,39,2,1,NA,NA,NA,NA,NA,2085,677.5,1,j,j,1,1,682.9999999999998,d,d,1,memory_color_short,-0.5,-0.5,0.6775,FALSE,FALSE,FALSE,FALSE
NA,0.79,NA,NA,NA,NA,NA,NA,NA,NA,d,orange,558812eefdf99b14f004b722,2021-09-27_16h11.00.912,forced_choiceRT_color,2021.2.3,Win32,30.0120048,NA,NA,NA,NA,NA,NA,NA,5,Ontime,short,d,1,2.098,0,0,0,0,1,NA,NA,NA,NA,NA,2098,653.9999999999999,1,d,d,1,1,677.5,j,j,1,memory_color_short,-0.5,-0.5,0.6539999999999999,FALSE,FALSE,FALSE,FALSE
NA,0.99,NA,NA,NA,NA,NA,NA,NA,NA,k,purple,558812eefdf99b14f004b722,2021-09-27_16h11.00.912,forced_choiceRT_color,2021.2.3,Win32,30.0120048,NA,NA,NA,NA,NA,NA,NA,5,Ontime,short,f,0,2.001,0,2,2,3,1,NA,NA,NA,NA,NA,2001,505.49999999999994,0,f,k,1,1,750.9999999999999,d,d,0,memory_color_short,-0.5,-0.5,0.5055,FALSE,FALSE,FALSE,FALSE
NA,1.3,NA,NA,NA,NA,NA,NA,NA,NA,d,orange,558812eefdf99b14f004b722,2021-09-27_16h11.00.912,forced_choiceRT_color,2021.2.3,Win32,30.0120048,NA,NA,NA,NA,NA,NA,NA,5,Ontime,short,d,1,2.049,0,3,3,0,1,NA,NA,NA,NA,NA,2049,374.49999999999994,1,d,d,1,0,505.49999999999994,f,k,1,memory_color_short,-0.5,0.5,0.37449999999999994,FALSE,FALSE,FALSE,FALSE
NA,0.54,NA,NA,NA,NA,NA,NA,NA,NA,k,purple,558812eefdf99b14f004b722,2021-09-27_16h11.00.912,forced_choiceRT_color,2021.2.3,Win32,30.0120048,NA,NA,NA,NA,NA,NA,NA,5,Ontime,short,k,1,2.056,1,0,4,3,1,NA,NA,NA,NA,NA,2056,758,1,k,k,0,1,374.49999999999994,d,d,1,memory_color_short,0.5,-0.5,0.758,FALSE,FALSE,FALSE,FALSE
NA,0.03,NA,NA,NA,NA,NA,NA,NA,NA,j,red,558812eefdf99b14f004b722,2021-09-27_16h11.00.912,forced_choiceRT_color,2021.2.3,Win32,30.0120048,NA,NA,NA,NA,NA,NA,NA,5,Ontime,short,j,1,2.022,1,1,5,2,1,NA,NA,NA,NA,NA,2021.9999999999998,995.9999999999999,1,j,j,1,1,758,k,k,1,memory_color_short,-0.5,-0.5,0.9959999999999999,FALSE,FALSE,FALSE,FALSE
NA,1.45,NA,NA,NA,NA,NA,NA,NA,NA,f,blue,558812eefdf99b14f004b722,2021-09-27_16h11.00.912,forced_choiceRT_color,2021.2.3,Win32,30.0120048,NA,NA,NA,NA,NA,NA,NA,5,Ontime,short,f,1,2.092,1,2,6,1,1,NA,NA,NA,NA,NA,2092,321.00000000000006,1,f,f,1,1,995.9999999999999,j,j,1,memory_color_short,-0.5,-0.5,0.32100000000000006,FALSE,FALSE,FALSE,FALSE
NA,1.01,NA,NA,NA,NA,NA,NA,NA,NA,j,red,558812eefdf99b14f004b722,2021-09-27_16h11.00.912,forced_choiceRT_color,2021.2.3,Win32,30.0120048,NA,NA,NA,NA,NA,NA,NA,5,Ontime,short,j,1,1.999,2,0,8,2,1,NA,NA,NA,NA,NA,1999,494.50000000000006,1,j,j,1,0,90.00000000000009,d,f,1,memory_color_short,-0.5,0.5,0.49450000000000005,FALSE,FALSE,FALSE,TRUE
NA,1.3,NA,NA,NA,NA,NA,NA,NA,NA,k,purple,558812eefdf99b14f004b722,2021-09-27_16h11.00.912,forced_choiceRT_color,2021.2.3,Win32,30.0120048,NA,NA,NA,NA,NA,NA,NA,5,Ontime,short,k,1,2.041,2,1,9,3,1,NA,NA,NA,NA,NA,2041,370.49999999999994,1,k,k,0,1,494.50000000000006,j,j,1,memory_color_short,0.5,-0.5,0.37049999999999994,FALSE,FALSE,FALSE,FALSE
NA,1.41,NA,NA,NA,NA,NA,NA,NA,NA,d,orange,558812eefdf99b14f004b722,2021-09-27_16h11.00.912,forced_choiceRT_color,2021.2.3,Win32,30.0120048,NA,NA,NA,NA,NA,NA,NA,5,Ontime,short,f,0,2.097,2,2,10,0,1,NA,NA,NA,NA,NA,2097,343.5,0,f,d,1,1,370.49999999999994,k,k,0,memory_color_short,-0.5,-0.5,0.3435,FALSE,FALSE,FALSE,FALSE
NA,0.91,NA,NA,NA,NA,NA,NA,NA,NA,f,blue,558812eefdf99b14f004b722,2021-09-27_16h11.00.912,forced_choiceRT_color,2021.2.3,Win32,30.0120048,NA,NA,NA,NA,NA,NA,NA,5,Ontime,short,f,1,2.06,2,3,11,1,1,NA,NA,NA,NA,NA,2060,575,1,f,f,1,0,343.5,f,d,1,memory_color_short,-0.5,0.5,0.575,TRUE,FALSE,TRUE,FALSE
NA,1.21,NA,NA,NA,NA,NA,NA,NA,NA,j,red,558812eefdf99b14f004b722,2021-09-27_16h11.00.912,forced_choiceRT_color,2021.2.3,Win32,30.0120048,NA,NA,NA,NA,NA,NA,NA,5,Ontime,short,k,0,2.009,3,1,13,2,1,NA,NA,NA,NA,NA,2009,399.49999999999994,0,k,j,1,1,80.00000000000007,f,f,0,memory_color_short,-0.5,-0.5,0.39949999999999997,FALSE,FALSE,FALSE,TRUE
NA,1.4,NA,NA,NA,NA,NA,NA,NA,NA,d,orange,558812eefdf99b14f004b722,2021-09-27_16h11.00.912,forced_choiceRT_color,2021.2.3,Win32,30.0120048,NA,NA,NA,NA,NA,NA,NA,5,Ontime,short,f,0,2.062,3,2,14,0,1,NA,NA,NA,NA,NA,2062,330.99999999999994,0,f,d,1,0,399.49999999999994,k,j,0,memory_color_short,-0.5,0.5,0.33099999999999996,FALSE,FALSE,FALSE,FALSE
NA,0.15,NA,NA,NA,NA,NA,NA,NA,NA,f,blue,558812eefdf99b14f004b722,2021-09-27_16h11.00.912,forced_choiceRT_color,2021.2.3,Win32,30.0120048,NA,NA,NA,NA,NA,NA,NA,5,Ontime,short,f,1,1.918,4,0,16,1,1,NA,NA,NA,NA,NA,1918,884,1,f,f,0,0,-839,d,f,1,memory_color_short,0.5,0.5,0.884,FALSE,TRUE,FALSE,TRUE
NA,1.14,NA,NA,NA,NA,NA,NA,NA,NA,k,purple,558812eefdf99b14f004b722,2021-09-27_16h11.00.912,forced_choiceRT_color,2021.2.3,Win32,30.0120048,NA,NA,NA,NA,NA,NA,NA,5,Ontime,short,j,0,2.073,4,1,17,3,1,NA,NA,NA,NA,NA,2073,466.5,0,j,k,0,1,884,f,f,0,memory_color_short,0.5,-0.5,0.4665,FALSE,FALSE,FALSE,FALSE
NA,0.2,NA,NA,NA,NA,NA,NA,NA,NA,j,red,558812eefdf99b14f004b722,2021-09-27_16h11.00.912,forced_choiceRT_color,2021.2.3,Win32,30.0120048,NA,NA,NA,NA,NA,NA,NA,5,Ontime,short,j,1,2.039,4,2,18,2,1,NA,NA,NA,NA,NA,2039.0000000000002,919.5000000000001,1,j,j,1,0,466.5,j,k,1,memory_color_short,-0.5,0.5,0.9195000000000001,TRUE,FALSE,TRUE,FALSE
NA,0.43,NA,NA,NA,NA,NA,NA,NA,NA,k,purple,558812eefdf99b14f004b722,2021-09-27_16h11.00.912,forced_choiceRT_color,2021.2.3,Win32,30.0120048,NA,NA,NA,NA,NA,NA,NA,5,Ontime,short,k,1,1.938,4,3,19,3,1,NA,NA,NA,NA,NA,1938,754,1,k,k,0,1,919.5000000000001,j,j,1,memory_color_short,0.5,-0.5,0.754,FALSE,FALSE,FALSE,FALSE
NA,1.94,NA,NA,NA,NA,NA,NA,NA,NA,d,orange,558812eefdf99b14f004b722,2021-09-27_16h11.00.912,forced_choiceRT_color,2021.2.3,Win32,30.0120048,NA,NA,NA,NA,NA,NA,NA,5,Ontime,short,k,0,2.016,5,0,20,0,1,NA,NA,NA,NA,NA,2016,38.000000000000036,0,k,d,1,1,754,k,k,0,memory_color_short,-0.5,-0.5,0.038000000000000034,TRUE,FALSE,FALSE,FALSE
NA,0.45,NA,NA,NA,NA,NA,NA,NA,NA,f,blue,558812eefdf99b14f004b722,2021-09-27_16h11.00.912,forced_choiceRT_color,2021.2.3,Win32,30.0120048,NA,NA,NA,NA,NA,NA,NA,5,Ontime,short,f,1,2.076,5,1,21,1,1,NA,NA,NA,NA,NA,2076,813,1,f,f,1,0,38.000000000000036,k,d,1,memory_color_short,-0.5,0.5,0.813,FALSE,FALSE,FALSE,TRUE
NA,1.35,NA,NA,NA,NA,NA,NA,NA,NA,d,orange,558812eefdf99b14f004b722,2021-09-27_16h11.00.912,forced_choiceRT_color,2021.2.3,Win32,30.0120048,NA,NA,NA,NA,NA,NA,NA,5,Ontime,short,d,1,2.008,6,0,24,0,1,NA,NA,NA,NA,NA,2008,328.99999999999994,1,d,d,1,1,378,k,k,1,memory_color_short,-0.5,-0.5,0.32899999999999996,FALSE,FALSE,FALSE,FALSE
NA,0.44,NA,NA,NA,NA,NA,NA,NA,NA,d,orange,558812eefdf99b14f004b722,2021-09-27_16h11.00.912,forced_choiceRT_color,2021.2.3,Win32,30.0120048,NA,NA,NA,NA,NA,NA,NA,5,Ontime,short,d,1,1.918,6,1,25,0,1,NA,NA,NA,NA,NA,1918,739,1,d,d,1,1,328.99999999999994,d,d,1,memory_color_short,-0.5,-0.5,0.739,TRUE,TRUE,TRUE,FALSE
NA,0.45,NA,NA,NA,NA,NA,NA,NA,NA,f,blue,558812eefdf99b14f004b722,2021-09-27_16h11.00.912,forced_choiceRT_color,2021.2.3,Win32,30.0120048,NA,NA,NA,NA,NA,NA,NA,5,Ontime,short,j,0,2.047,6,2,26,1,1,NA,NA,NA,NA,NA,2047.0000000000002,798.5000000000001,0,j,f,1,1,739,d,d,0,memory_color_short,-0.5,-0.5,0.7985000000000001,FALSE,FALSE,FALSE,FALSE
NA,0.37,NA,NA,NA,NA,NA,NA,NA,NA,d,orange,558812eefdf99b14f004b722,2021-09-27_16h11.00.912,forced_choiceRT_color,2021.2.3,Win32,30.0120048,NA,NA,NA,NA,NA,NA,NA,5,Ontime,short,d,1,1.996,7,0,28,0,1,NA,NA,NA,NA,NA,1996,813,1,d,d,0,1,908,d,d,1,memory_color_short,0.5,-0.5,0.813,TRUE,TRUE,TRUE,FALSE
NA,1.45,NA,NA,NA,NA,NA,NA,NA,NA,k,purple,558812eefdf99b14f004b722,2021-09-27_16h11.00.912,forced_choiceRT_color,2021.2.3,Win32,30.0120048,NA,NA,NA,NA,NA,NA,NA,5,Ontime,short,j,0,1.994,7,1,29,3,1,NA,NA,NA,NA,NA,1994,272,0,j,k,1,1,813,d,d,0,memory_color_short,-0.5,-0.5,0.272,FALSE,FALSE,FALSE,FALSE
NA,0.42,NA,NA,NA,NA,NA,NA,NA,NA,k,purple,558812eefdf99b14f004b722,2021-09-27_16h11.00.912,forced_choiceRT_color,2021.2.3,Win32,30.0120048,NA,NA,NA,NA,NA,NA,NA,5,Ontime,short,j,0,1.96,8,0,32,3,1,NA,NA,NA,NA,NA,1960,770,0,j,k,1,0,88.50000000000003,k,j,0,memory_color_short,-0.5,0.5,0.77,FALSE,FALSE,TRUE,TRUE
NA,0.74,NA,NA,NA,NA,NA,NA,NA,NA,j,red,558812eefdf99b14f004b722,2021-09-27_16h11.00.912,forced_choiceRT_color,2021.2.3,Win32,30.0120048,NA,NA,NA,NA,NA,NA,NA,5,Ontime,short,j,1,2.039,8,1,33,2,1,NA,NA,NA,NA,NA,2039.0000000000002,649.5000000000001,1,j,j,0,0,770,j,k,1,memory_color_short,0.5,0.5,0.6495000000000001,TRUE,FALSE,TRUE,FALSE
NA,0.61,NA,NA,NA,NA,NA,NA,NA,NA,k,purple,558812eefdf99b14f004b722,2021-09-27_16h11.00.912,forced_choiceRT_color,2021.2.3,Win32,30.0120048,NA,NA,NA,NA,NA,NA,NA,5,Ontime,short,k,1,1.993,8,2,34,3,1,NA,NA,NA,NA,NA,1993,691.5,1,k,k,0,1,649.5000000000001,j,j,1,memory_color_short,0.5,-0.5,0.6915,FALSE,FALSE,FALSE,FALSE
NA,0.63,NA,NA,NA,NA,NA,NA,NA,NA,k,purple,558812eefdf99b14f004b722,2021-09-27_16h11.00.912,forced_choiceRT_color,2021.2.3,Win32,30.0120048,NA,NA,NA,NA,NA,NA,NA,5,Ontime,short,k,1,2.02,8,3,35,3,1,NA,NA,NA,NA,NA,2020,695.0000000000001,1,k,k,1,1,691.5,k,k,1,memory_color_short,-0.5,-0.5,0.6950000000000001,TRUE,TRUE,TRUE,FALSE
NA,0.33,NA,NA,NA,NA,NA,NA,NA,NA,j,red,558812eefdf99b14f004b722,2021-09-27_16h11.00.912,forced_choiceRT_color,2021.2.3,Win32,30.0120048,NA,NA,NA,NA,NA,NA,NA,5,Ontime,short,j,1,1.931,9,0,36,2,1,NA,NA,NA,NA,NA,1931,800.5,1,j,j,1,1,695.0000000000001,k,k,1,memory_color_short,-0.5,-0.5,0.8005,FALSE,FALSE,FALSE,FALSE
NA,0.11,NA,NA,NA,NA,NA,NA,NA,NA,j,red,558812eefdf99b14f004b722,2021-09-27_16h11.00.912,forced_choiceRT_color,2021.2.3,Win32,30.0120048,NA,NA,NA,NA,NA,NA,NA,5,Ontime,short,j,1,1.981,9,1,37,2,1,NA,NA,NA,NA,NA,1981,935.5,1,j,j,1,1,800.5,j,j,1,memory_color_short,-0.5,-0.5,0.9355,TRUE,TRUE,TRUE,FALSE
NA,1.4,NA,NA,NA,NA,NA,NA,NA,NA,j,red,558812eefdf99b14f004b722,2021-09-27_16h11.00.912,forced_choiceRT_color,2021.2.3,Win32,30.0120048,NA,NA,NA,NA,NA,NA,NA,5,Ontime,short,j,1,2.043,9,2,38,2,1,NA,NA,NA,NA,NA,2043.0000000000002,321.5000000000001,1,j,j,1,1,935.5,j,j,1,memory_color_short,-0.5,-0.5,0.3215000000000001,TRUE,TRUE,TRUE,FALSE
NA,0.38,NA,NA,NA,NA,NA,NA,NA,NA,f,blue,558812eefdf99b14f004b722,2021-09-27_16h11.00.912,forced_choiceRT_color,2021.2.3,Win32,30.0120048,NA,NA,NA,NA,NA,NA,NA,5,Ontime,short,f,1,1.986,9,3,39,1,1,NA,NA,NA,NA,NA,1986,802.9999999999999,1,f,f,1,1,321.5000000000001,j,j,1,memory_color_short,-0.5,-0.5,0.8029999999999999,FALSE,FALSE,FALSE,FALSE
NA,0.27,NA,NA,NA,NA,NA,NA,NA,NA,k,purple,558812eefdf99b14f004b722,2021-09-27_16h11.00.912,forced_choiceRT_color,2021.2.3,Win32,30.0120048,NA,NA,NA,NA,NA,NA,NA,6,Ontime,short,k,1,1.963,0,0,0,3,1,NA,NA,NA,NA,NA,1963,846.5,1,k,k,1,1,802.9999999999999,f,f,1,memory_color_short,-0.5,-0.5,0.8465,FALSE,FALSE,FALSE,FALSE
NA,0.1,NA,NA,NA,NA,NA,NA,NA,NA,j,red,558812eefdf99b14f004b722,2021-09-27_16h11.00.912,forced_choiceRT_color,2021.2.3,Win32,30.0120048,NA,NA,NA,NA,NA,NA,NA,6,Ontime,short,j,1,1.992,0,2,2,2,1,NA,NA,NA,NA,NA,1992,946,1,j,j,1,0,111.49999999999993,j,f,1,memory_color_short,-0.5,0.5,0.946,TRUE,FALSE,TRUE,FALSE
NA,0.1,NA,NA,NA,NA,NA,NA,NA,NA,j,red,558812eefdf99b14f004b722,2021-09-27_16h11.00.912,forced_choiceRT_color,2021.2.3,Win32,30.0120048,NA,NA,NA,NA,NA,NA,NA,6,Ontime,short,j,1,1.996,0,3,3,2,1,NA,NA,NA,NA,NA,1996,948,1,j,j,0,1,946,j,j,1,memory_color_short,0.5,-0.5,0.948,TRUE,TRUE,TRUE,FALSE
NA,0.5,NA,NA,NA,NA,NA,NA,NA,NA,d,orange,558812eefdf99b14f004b722,2021-09-27_16h11.00.912,forced_choiceRT_color,2021.2.3,Win32,30.0120048,NA,NA,NA,NA,NA,NA,NA,6,Ontime,short,d,1,1.965,1,0,4,0,1,NA,NA,NA,NA,NA,1965,732.5,1,d,d,1,1,948,j,j,1,memory_color_short,-0.5,-0.5,0.7325,FALSE,FALSE,FALSE,FALSE
NA,1.88,NA,NA,NA,NA,NA,NA,NA,NA,k,purple,558812eefdf99b14f004b722,2021-09-27_16h11.00.912,forced_choiceRT_color,2021.2.3,Win32,30.0120048,NA,NA,NA,NA,NA,NA,NA,6,Ontime,short,d,0,2.071,1,1,5,3,1,NA,NA,NA,NA,NA,2071,95.50000000000014,0,d,k,1,1,732.5,d,d,0,memory_color_short,-0.5,-0.5,0.09550000000000014,TRUE,FALSE,FALSE,FALSE
NA,0.29,NA,NA,NA,NA,NA,NA,NA,NA,k,purple,558812eefdf99b14f004b722,2021-09-27_16h11.00.912,forced_choiceRT_color,2021.2.3,Win32,30.0120048,NA,NA,NA,NA,NA,NA,NA,6,Ontime,short,f,0,1.946,1,3,7,3,1,NA,NA,NA,NA,NA,1946,828,0,f,k,0,0,195.99999999999994,k,d,0,memory_color_short,0.5,0.5,0.828,FALSE,FALSE,TRUE,FALSE
NA,1.91,NA,NA,NA,NA,NA,NA,NA,NA,k,purple,558812eefdf99b14f004b722,2021-09-27_16h11.00.912,forced_choiceRT_color,2021.2.3,Win32,30.0120048,NA,NA,NA,NA,NA,NA,NA,6,Ontime,short,f,0,2.056,2,0,8,3,1,NA,NA,NA,NA,NA,2056,73.00000000000007,0,f,k,0,0,828,f,k,0,memory_color_short,0.5,0.5,0.07300000000000006,TRUE,TRUE,FALSE,FALSE
NA,1.59,NA,NA,NA,NA,NA,NA,NA,NA,f,blue,558812eefdf99b14f004b722,2021-09-27_16h11.00.912,forced_choiceRT_color,2021.2.3,Win32,30.0120048,NA,NA,NA,NA,NA,NA,NA,6,Ontime,short,f,1,1.996,2,1,9,1,1,NA,NA,NA,NA,NA,1996,202.99999999999997,1,f,f,0,0,73.00000000000007,f,k,1,memory_color_short,0.5,0.5,0.20299999999999996,TRUE,FALSE,TRUE,TRUE
NA,1.22,NA,NA,NA,NA,NA,NA,NA,NA,f,blue,558812eefdf99b14f004b722,2021-09-27_16h11.00.912,forced_choiceRT_color,2021.2.3,Win32,30.0120048,NA,NA,NA,NA,NA,NA,NA,6,Ontime,short,f,1,1.984,3,0,12,1,1,NA,NA,NA,NA,NA,1984,382,1,f,f,1,0,-345,d,j,1,memory_color_short,-0.5,0.5,0.382,FALSE,FALSE,FALSE,TRUE
NA,1.61,NA,NA,NA,NA,NA,NA,NA,NA,j,red,558812eefdf99b14f004b722,2021-09-27_16h11.00.912,forced_choiceRT_color,2021.2.3,Win32,30.0120048,NA,NA,NA,NA,NA,NA,NA,6,Ontime,short,k,0,1.935,3,1,13,2,1,NA,NA,NA,NA,NA,1935,162.49999999999997,0,k,j,0,1,382,f,f,0,memory_color_short,0.5,-0.5,0.16249999999999998,FALSE,FALSE,FALSE,FALSE
NA,0.76,NA,NA,NA,NA,NA,NA,NA,NA,j,red,558812eefdf99b14f004b722,2021-09-27_16h11.00.912,forced_choiceRT_color,2021.2.3,Win32,30.0120048,NA,NA,NA,NA,NA,NA,NA,6,Ontime,short,j,1,1.945,3,3,15,2,1,NA,NA,NA,NA,NA,1945,592.5,1,j,j,0,1,130.9999999999999,k,k,1,memory_color_short,0.5,-0.5,0.5925,FALSE,FALSE,FALSE,FALSE
NA,0.97,NA,NA,NA,NA,NA,NA,NA,NA,d,orange,558812eefdf99b14f004b722,2021-09-27_16h11.00.912,forced_choiceRT_color,2021.2.3,Win32,30.0120048,NA,NA,NA,NA,NA,NA,NA,6,Ontime,short,d,1,1.987,4,0,16,0,1,NA,NA,NA,NA,NA,1987,508.50000000000006,1,d,d,1,1,592.5,j,j,1,memory_color_short,-0.5,-0.5,0.5085000000000001,FALSE,FALSE,FALSE,FALSE
NA,1.11,NA,NA,NA,NA,NA,NA,NA,NA,f,blue,558812eefdf99b14f004b722,2021-09-27_16h11.00.912,forced_choiceRT_color,2021.2.3,Win32,30.0120048,NA,NA,NA,NA,NA,NA,NA,6,Ontime,short,f,1,2.029,4,1,17,1,1,NA,NA,NA,NA,NA,2029,459.4999999999999,1,f,f,1,1,508.50000000000006,d,d,1,memory_color_short,-0.5,-0.5,0.4594999999999999,FALSE,FALSE,FALSE,FALSE
NA,0.35,NA,NA,NA,NA,NA,NA,NA,NA,f,blue,558812eefdf99b14f004b722,2021-09-27_16h11.00.912,forced_choiceRT_color,2021.2.3,Win32,30.0120048,NA,NA,NA,NA,NA,NA,NA,6,Ontime,short,f,1,2.031,4,2,18,1,1,NA,NA,NA,NA,NA,2031.0000000000002,840.5,1,f,f,1,1,459.4999999999999,f,f,1,memory_color_short,-0.5,-0.5,0.8405,TRUE,TRUE,TRUE,FALSE
NA,0.35,NA,NA,NA,NA,NA,NA,NA,NA,k,purple,558812eefdf99b14f004b722,2021-09-27_16h11.00.912,forced_choiceRT_color,2021.2.3,Win32,30.0120048,NA,NA,NA,NA,NA,NA,NA,6,Ontime,short,k,1,1.987,4,3,19,3,1,NA,NA,NA,NA,NA,1987,818.5,1,k,k,1,1,840.5,f,f,1,memory_color_short,-0.5,-0.5,0.8185,FALSE,FALSE,FALSE,FALSE
NA,0.87,NA,NA,NA,NA,NA,NA,NA,NA,f,blue,558812eefdf99b14f004b722,2021-09-27_16h11.00.912,forced_choiceRT_color,2021.2.3,Win32,30.0120048,NA,NA,NA,NA,NA,NA,NA,6,Ontime,short,f,1,1.932,5,0,20,1,1,NA,NA,NA,NA,NA,1932,530.9999999999999,1,f,f,1,1,818.5,k,k,1,memory_color_short,-0.5,-0.5,0.5309999999999999,FALSE,FALSE,FALSE,FALSE
NA,1.27,NA,NA,NA,NA,NA,NA,NA,NA,f,blue,558812eefdf99b14f004b722,2021-09-27_16h11.00.912,forced_choiceRT_color,2021.2.3,Win32,30.0120048,NA,NA,NA,NA,NA,NA,NA,6,Ontime,short,f,1,2.049,5,1,21,1,1,NA,NA,NA,NA,NA,2049,389.49999999999994,1,f,f,1,1,530.9999999999999,f,f,1,memory_color_short,-0.5,-0.5,0.38949999999999996,TRUE,TRUE,TRUE,FALSE
NA,1.55,NA,NA,NA,NA,NA,NA,NA,NA,f,blue,558812eefdf99b14f004b722,2021-09-27_16h11.00.912,forced_choiceRT_color,2021.2.3,Win32,30.0120048,NA,NA,NA,NA,NA,NA,NA,6,Ontime,short,f,1,2.025,5,2,22,1,1,NA,NA,NA,NA,NA,2025,237.49999999999994,1,f,f,1,1,389.49999999999994,f,f,1,memory_color_short,-0.5,-0.5,0.23749999999999993,TRUE,TRUE,TRUE,FALSE
NA,1.8,NA,NA,NA,NA,NA,NA,NA,NA,j,red,558812eefdf99b14f004b722,2021-09-27_16h11.00.912,forced_choiceRT_color,2021.2.3,Win32,30.0120048,NA,NA,NA,NA,NA,NA,NA,6,Ontime,short,f,0,2.027,5,3,23,2,1,NA,NA,NA,NA,NA,2027.0000000000002,113.50000000000004,0,f,j,1,1,237.49999999999994,f,f,0,memory_color_short,-0.5,-0.5,0.11350000000000005,TRUE,FALSE,FALSE,FALSE
NA,1.31,NA,NA,NA,NA,NA,NA,NA,NA,f,blue,558812eefdf99b14f004b722,2021-09-27_16h11.00.912,forced_choiceRT_color,2021.2.3,Win32,30.0120048,NA,NA,NA,NA,NA,NA,NA,6,Ontime,short,f,1,1.904,6,0,24,1,1,NA,NA,NA,NA,NA,1904,296.99999999999994,1,f,f,1,0,113.50000000000004,f,j,1,memory_color_short,-0.5,0.5,0.29699999999999993,TRUE,FALSE,TRUE,FALSE
NA,1.4,NA,NA,NA,NA,NA,NA,NA,NA,k,purple,558812eefdf99b14f004b722,2021-09-27_16h11.00.912,forced_choiceRT_color,2021.2.3,Win32,30.0120048,NA,NA,NA,NA,NA,NA,NA,6,Ontime,short,k,1,1.963,6,1,25,3,1,NA,NA,NA,NA,NA,1963,281.50000000000006,1,k,k,0,1,296.99999999999994,f,f,1,memory_color_short,0.5,-0.5,0.2815000000000001,FALSE,FALSE,FALSE,FALSE
NA,1.57,NA,NA,NA,NA,NA,NA,NA,NA,f,blue,558812eefdf99b14f004b722,2021-09-27_16h11.00.912,forced_choiceRT_color,2021.2.3,Win32,30.0120048,NA,NA,NA,NA,NA,NA,NA,6,Ontime,short,j,0,1.959,6,2,26,1,1,NA,NA,NA,NA,NA,1959,194.5,0,j,f,1,1,281.50000000000006,k,k,0,memory_color_short,-0.5,-0.5,0.1945,FALSE,FALSE,FALSE,FALSE
NA,1.86,NA,NA,NA,NA,NA,NA,NA,NA,d,orange,558812eefdf99b14f004b722,2021-09-27_16h11.00.912,forced_choiceRT_color,2021.2.3,Win32,30.0120048,NA,NA,NA,NA,NA,NA,NA,6,Ontime,short,f,0,1.959,7,0,28,0,1,NA,NA,NA,NA,NA,1959,49.499999999999986,0,f,d,0,1,567,d,d,0,memory_color_short,0.5,-0.5,0.04949999999999999,FALSE,TRUE,TRUE,FALSE
NA,0.04,NA,NA,NA,NA,NA,NA,NA,NA,d,orange,558812eefdf99b14f004b722,2021-09-27_16h11.00.912,forced_choiceRT_color,2021.2.3,Win32,30.0120048,NA,NA,NA,NA,NA,NA,NA,6,Ontime,short,d,1,1.984,7,1,29,0,1,NA,NA,NA,NA,NA,1984,972,1,d,d,1,0,49.499999999999986,f,d,1,memory_color_short,-0.5,0.5,0.972,FALSE,TRUE,FALSE,TRUE
NA,0.44,NA,NA,NA,NA,NA,NA,NA,NA,j,red,558812eefdf99b14f004b722,2021-09-27_16h11.00.912,forced_choiceRT_color,2021.2.3,Win32,30.0120048,NA,NA,NA,NA,NA,NA,NA,6,Ontime,short,j,1,1.969,7,2,30,2,1,NA,NA,NA,NA,NA,1969,764.5000000000001,1,j,j,0,1,972,d,d,1,memory_color_short,0.5,-0.5,0.7645000000000001,FALSE,FALSE,FALSE,FALSE
NA,0.95,NA,NA,NA,NA,NA,NA,NA,NA,k,purple,558812eefdf99b14f004b722,2021-09-27_16h11.00.912,forced_choiceRT_color,2021.2.3,Win32,30.0120048,NA,NA,NA,NA,NA,NA,NA,6,Ontime,short,k,1,1.981,7,3,31,3,1,NA,NA,NA,NA,NA,1981,515.5000000000001,1,k,k,1,1,764.5000000000001,j,j,1,memory_color_short,-0.5,-0.5,0.5155000000000001,FALSE,FALSE,FALSE,FALSE
NA,1.61,NA,NA,NA,NA,NA,NA,NA,NA,j,red,558812eefdf99b14f004b722,2021-09-27_16h11.00.912,forced_choiceRT_color,2021.2.3,Win32,30.0120048,NA,NA,NA,NA,NA,NA,NA,6,Ontime,short,d,0,1.989,8,2,34,2,1,NA,NA,NA,NA,NA,1989,189.5,0,d,j,1,1,1010.5,k,k,0,memory_color_short,-0.5,-0.5,0.1895,FALSE,FALSE,FALSE,FALSE
NA,0.76,NA,NA,NA,NA,NA,NA,NA,NA,k,purple,558812eefdf99b14f004b722,2021-09-27_16h11.00.912,forced_choiceRT_color,2021.2.3,Win32,30.0120048,NA,NA,NA,NA,NA,NA,NA,6,Ontime,short,k,1,1.991,8,3,35,3,1,NA,NA,NA,NA,NA,1991,615.5,1,k,k,1,0,189.5,d,j,1,memory_color_short,-0.5,0.5,0.6155,FALSE,FALSE,FALSE,FALSE
NA,1.21,NA,NA,NA,NA,NA,NA,NA,NA,j,red,558812eefdf99b14f004b722,2021-09-27_16h11.00.912,forced_choiceRT_color,2021.2.3,Win32,30.0120048,NA,NA,NA,NA,NA,NA,NA,6,Ontime,short,j,1,1.952,9,0,36,2,1,NA,NA,NA,NA,NA,1952,371,1,j,j,0,1,615.5,k,k,1,memory_color_short,0.5,-0.5,0.371,FALSE,FALSE,FALSE,FALSE
NA,0.87,NA,NA,NA,NA,NA,NA,NA,NA,d,orange,558812eefdf99b14f004b722,2021-09-27_16h11.00.912,forced_choiceRT_color,2021.2.3,Win32,30.0120048,NA,NA,NA,NA,NA,NA,NA,6,Ontime,short,d,1,2.035,9,1,37,0,1,NA,NA,NA,NA,NA,2035.0000000000002,582.5,1,d,d,1,1,371,j,j,1,memory_color_short,-0.5,-0.5,0.5825,FALSE,FALSE,FALSE,FALSE
NA,0.95,NA,NA,NA,NA,NA,NA,NA,NA,j,red,558812eefdf99b14f004b722,2021-09-27_16h11.00.912,forced_choiceRT_color,2021.2.3,Win32,30.0120048,NA,NA,NA,NA,NA,NA,NA,6,Ontime,short,j,1,2.005,9,2,38,2,1,NA,NA,NA,NA,NA,2005,527.5,1,j,j,1,1,582.5,d,d,1,memory_color_short,-0.5,-0.5,0.5275,FALSE,FALSE,FALSE,FALSE
NA,1.35,NA,NA,NA,NA,NA,NA,NA,NA,d,orange,558812eefdf99b14f004b722,2021-09-27_16h11.00.912,forced_choiceRT_color,2021.2.3,Win32,30.0120048,NA,NA,NA,NA,NA,NA,NA,6,Ontime,short,d,1,1.987,9,3,39,0,1,NA,NA,NA,NA,NA,1987,318.5,1,d,d,1,1,527.5,j,j,1,memory_color_short,-0.5,-0.5,0.3185,FALSE,FALSE,FALSE,FALSE
NA,0.41,NA,NA,NA,NA,NA,NA,NA,NA,k,purple,558812eefdf99b14f004b722,2021-09-27_16h11.00.912,forced_choiceRT_color,2021.2.3,Win32,30.0120048,NA,NA,NA,NA,NA,NA,NA,7,Ontime,short,k,1,1.966,0,1,1,3,1,NA,NA,NA,NA,NA,1966,778,1,k,k,1,0,191.00000000000006,j,d,1,memory_color_short,-0.5,0.5,0.778,FALSE,FALSE,FALSE,FALSE
NA,0.14,NA,NA,NA,NA,NA,NA,NA,NA,j,red,558812eefdf99b14f004b722,2021-09-27_16h11.00.912,forced_choiceRT_color,2021.2.3,Win32,30.0120048,NA,NA,NA,NA,NA,NA,NA,7,Ontime,short,j,1,1.969,0,2,2,2,1,NA,NA,NA,NA,NA,1969,914.5000000000001,1,j,j,0,1,778,k,k,1,memory_color_short,0.5,-0.5,0.9145000000000001,FALSE,FALSE,FALSE,FALSE
NA,1.61,NA,NA,NA,NA,NA,NA,NA,NA,f,blue,558812eefdf99b14f004b722,2021-09-27_16h11.00.912,forced_choiceRT_color,2021.2.3,Win32,30.0120048,NA,NA,NA,NA,NA,NA,NA,7,Ontime,short,j,0,2.063,0,3,3,1,1,NA,NA,NA,NA,NA,2063,226.50000000000003,0,j,f,1,1,914.5000000000001,j,j,0,memory_color_short,-0.5,-0.5,0.22650000000000003,TRUE,FALSE,FALSE,FALSE
NA,1.68,NA,NA,NA,NA,NA,NA,NA,NA,d,orange,558812eefdf99b14f004b722,2021-09-27_16h11.00.912,forced_choiceRT_color,2021.2.3,Win32,30.0120048,NA,NA,NA,NA,NA,NA,NA,7,Ontime,short,j,0,2.044,1,0,4,0,1,NA,NA,NA,NA,NA,2044,182.00000000000006,0,j,d,1,0,226.50000000000003,j,f,0,memory_color_short,-0.5,0.5,0.18200000000000005,TRUE,FALSE,FALSE,FALSE
NA,0.84,NA,NA,NA,NA,NA,NA,NA,NA,f,blue,558812eefdf99b14f004b722,2021-09-27_16h11.00.912,forced_choiceRT_color,2021.2.3,Win32,30.0120048,NA,NA,NA,NA,NA,NA,NA,7,Ontime,short,f,1,1.975,1,1,5,1,1,NA,NA,NA,NA,NA,1975,567.5000000000001,1,f,f,0,0,182.00000000000006,j,d,1,memory_color_short,0.5,0.5,0.5675000000000001,FALSE,FALSE,FALSE,FALSE
NA,1.4,NA,NA,NA,NA,NA,NA,NA,NA,k,purple,558812eefdf99b14f004b722,2021-09-27_16h11.00.912,forced_choiceRT_color,2021.2.3,Win32,30.0120048,NA,NA,NA,NA,NA,NA,NA,7,Ontime,short,f,0,2.043,1,2,6,3,1,NA,NA,NA,NA,NA,2043.0000000000002,321.5000000000001,0,f,k,0,1,567.5000000000001,f,f,0,memory_color_short,0.5,-0.5,0.3215000000000001,TRUE,FALSE,FALSE,FALSE
NA,1.65,NA,NA,NA,NA,NA,NA,NA,NA,f,blue,558812eefdf99b14f004b722,2021-09-27_16h11.00.912,forced_choiceRT_color,2021.2.3,Win32,30.0120048,NA,NA,NA,NA,NA,NA,NA,7,Ontime,short,k,0,2.051,1,3,7,1,1,NA,NA,NA,NA,NA,2051,200.5000000000001,0,k,f,1,0,321.5000000000001,f,k,0,memory_color_short,-0.5,0.5,0.20050000000000012,FALSE,FALSE,TRUE,FALSE
NA,1.21,NA,NA,NA,NA,NA,NA,NA,NA,d,orange,558812eefdf99b14f004b722,2021-09-27_16h11.00.912,forced_choiceRT_color,2021.2.3,Win32,30.0120048,NA,NA,NA,NA,NA,NA,NA,7,Ontime,short,d,1,2.097,2,0,8,0,1,NA,NA,NA,NA,NA,2097,443.5,1,d,d,0,0,200.5000000000001,k,f,1,memory_color_short,0.5,0.5,0.4435,FALSE,FALSE,FALSE,FALSE
NA,0.08,NA,NA,NA,NA,NA,NA,NA,NA,k,purple,558812eefdf99b14f004b722,2021-09-27_16h11.00.912,forced_choiceRT_color,2021.2.3,Win32,30.0120048,NA,NA,NA,NA,NA,NA,NA,7,Ontime,short,f,0,2.036,2,3,11,3,1,NA,NA,NA,NA,NA,2036,978,0,f,k,1,1,929.5,j,j,0,memory_color_short,-0.5,-0.5,0.978,FALSE,FALSE,FALSE,FALSE
NA,1.52,NA,NA,NA,NA,NA,NA,NA,NA,f,blue,558812eefdf99b14f004b722,2021-09-27_16h11.00.912,forced_choiceRT_color,2021.2.3,Win32,30.0120048,NA,NA,NA,NA,NA,NA,NA,7,Ontime,short,k,0,1.948,3,1,13,1,1,NA,NA,NA,NA,NA,1948,213.99999999999997,0,k,f,0,1,1006.5,j,j,0,memory_color_short,0.5,-0.5,0.21399999999999997,FALSE,FALSE,FALSE,FALSE
NA,0.03,NA,NA,NA,NA,NA,NA,NA,NA,d,orange,558812eefdf99b14f004b722,2021-09-27_16h11.00.912,forced_choiceRT_color,2021.2.3,Win32,30.0120048,NA,NA,NA,NA,NA,NA,NA,7,Ontime,short,d,1,1.982,3,2,14,0,1,NA,NA,NA,NA,NA,1982,976,1,d,d,1,0,213.99999999999997,k,f,1,memory_color_short,-0.5,0.5,0.976,FALSE,FALSE,FALSE,FALSE
NA,0.65,NA,NA,NA,NA,NA,NA,NA,NA,j,red,558812eefdf99b14f004b722,2021-09-27_16h11.00.912,forced_choiceRT_color,2021.2.3,Win32,30.0120048,NA,NA,NA,NA,NA,NA,NA,7,Ontime,short,j,1,1.996,3,3,15,2,1,NA,NA,NA,NA,NA,1996,673,1,j,j,0,1,976,d,d,1,memory_color_short,0.5,-0.5,0.673,FALSE,FALSE,FALSE,FALSE
NA,1.83,NA,NA,NA,NA,NA,NA,NA,NA,f,blue,558812eefdf99b14f004b722,2021-09-27_16h11.00.912,forced_choiceRT_color,2021.2.3,Win32,30.0120048,NA,NA,NA,NA,NA,NA,NA,7,Ontime,short,d,0,2.005,4,1,17,1,1,NA,NA,NA,NA,NA,2005,87.49999999999991,0,d,f,1,1,992,f,f,0,memory_color_short,-0.5,-0.5,0.08749999999999991,FALSE,TRUE,TRUE,FALSE
NA,1.49,NA,NA,NA,NA,NA,NA,NA,NA,j,red,558812eefdf99b14f004b722,2021-09-27_16h11.00.912,forced_choiceRT_color,2021.2.3,Win32,30.0120048,NA,NA,NA,NA,NA,NA,NA,7,Ontime,short,d,0,2.022,4,3,19,2,1,NA,NA,NA,NA,NA,2021.9999999999998,265.9999999999999,0,d,j,0,0,426.5000000000001,f,d,0,memory_color_short,0.5,0.5,0.2659999999999999,FALSE,FALSE,FALSE,FALSE
NA,0.76,NA,NA,NA,NA,NA,NA,NA,NA,j,red,558812eefdf99b14f004b722,2021-09-27_16h11.00.912,forced_choiceRT_color,2021.2.3,Win32,30.0120048,NA,NA,NA,NA,NA,NA,NA,7,Ontime,short,j,1,1.982,5,1,21,2,1,NA,NA,NA,NA,NA,1982,611,1,j,j,0,1,-715.5,j,j,1,memory_color_short,0.5,-0.5,0.611,TRUE,TRUE,TRUE,TRUE
NA,0.53,NA,NA,NA,NA,NA,NA,NA,NA,k,purple,558812eefdf99b14f004b722,2021-09-27_16h11.00.912,forced_choiceRT_color,2021.2.3,Win32,30.0120048,NA,NA,NA,NA,NA,NA,NA,7,Ontime,short,k,1,2.024,5,2,22,3,1,NA,NA,NA,NA,NA,2024,747,1,k,k,1,1,611,j,j,1,memory_color_short,-0.5,-0.5,0.747,FALSE,FALSE,FALSE,FALSE
NA,1.18,NA,NA,NA,NA,NA,NA,NA,NA,f,blue,558812eefdf99b14f004b722,2021-09-27_16h11.00.912,forced_choiceRT_color,2021.2.3,Win32,30.0120048,NA,NA,NA,NA,NA,NA,NA,7,Ontime,short,f,1,1.961,5,3,23,1,1,NA,NA,NA,NA,NA,1961,390.50000000000006,1,f,f,1,1,747,k,k,1,memory_color_short,-0.5,-0.5,0.39050000000000007,FALSE,FALSE,FALSE,FALSE
NA,0.43,NA,NA,NA,NA,NA,NA,NA,NA,k,purple,558812eefdf99b14f004b722,2021-09-27_16h11.00.912,forced_choiceRT_color,2021.2.3,Win32,30.0120048,NA,NA,NA,NA,NA,NA,NA,7,Ontime,short,k,1,1.975,6,0,24,3,1,NA,NA,NA,NA,NA,1975,772.5000000000001,1,k,k,1,1,390.50000000000006,f,f,1,memory_color_short,-0.5,-0.5,0.7725000000000001,FALSE,FALSE,FALSE,FALSE
NA,1.26,NA,NA,NA,NA,NA,NA,NA,NA,k,purple,558812eefdf99b14f004b722,2021-09-27_16h11.00.912,forced_choiceRT_color,2021.2.3,Win32,30.0120048,NA,NA,NA,NA,NA,NA,NA,7,Ontime,short,k,1,1.954,6,1,25,3,1,NA,NA,NA,NA,NA,1954,347,1,k,k,1,1,772.5000000000001,k,k,1,memory_color_short,-0.5,-0.5,0.347,TRUE,TRUE,TRUE,FALSE
NA,0.04,NA,NA,NA,NA,NA,NA,NA,NA,j,red,558812eefdf99b14f004b722,2021-09-27_16h11.00.912,forced_choiceRT_color,2021.2.3,Win32,30.0120048,NA,NA,NA,NA,NA,NA,NA,7,Ontime,short,j,1,1.998,6,3,27,2,1,NA,NA,NA,NA,NA,1998,979,1,j,j,1,1,108.0000000000001,k,k,1,memory_color_short,-0.5,-0.5,0.979,FALSE,FALSE,FALSE,FALSE
NA,1.79,NA,NA,NA,NA,NA,NA,NA,NA,d,orange,558812eefdf99b14f004b722,2021-09-27_16h11.00.912,forced_choiceRT_color,2021.2.3,Win32,30.0120048,NA,NA,NA,NA,NA,NA,NA,7,Ontime,short,j,0,1.996,7,0,28,0,1,NA,NA,NA,NA,NA,1996,102.99999999999999,0,j,d,1,1,979,j,j,0,memory_color_short,-0.5,-0.5,0.10299999999999998,TRUE,FALSE,FALSE,FALSE
NA,0.78,NA,NA,NA,NA,NA,NA,NA,NA,f,blue,558812eefdf99b14f004b722,2021-09-27_16h11.00.912,forced_choiceRT_color,2021.2.3,Win32,30.0120048,NA,NA,NA,NA,NA,NA,NA,7,Ontime,short,j,0,1.913,7,2,30,1,1,NA,NA,NA,NA,NA,1913,566.5,0,j,f,0,0,276.9999999999999,f,d,0,memory_color_short,0.5,0.5,0.5665,FALSE,FALSE,TRUE,FALSE
NA,1.44,NA,NA,NA,NA,NA,NA,NA,NA,f,blue,558812eefdf99b14f004b722,2021-09-27_16h11.00.912,forced_choiceRT_color,2021.2.3,Win32,30.0120048,NA,NA,NA,NA,NA,NA,NA,7,Ontime,short,k,0,1.989,7,3,31,1,1,NA,NA,NA,NA,NA,1989,274.50000000000006,0,k,f,0,0,566.5,j,f,0,memory_color_short,0.5,0.5,0.2745000000000001,FALSE,TRUE,FALSE,FALSE
NA,0.54,NA,NA,NA,NA,NA,NA,NA,NA,k,purple,558812eefdf99b14f004b722,2021-09-27_16h11.00.912,forced_choiceRT_color,2021.2.3,Win32,30.0120048,NA,NA,NA,NA,NA,NA,NA,7,Ontime,short,k,1,1.975,8,1,33,3,1,NA,NA,NA,NA,NA,1975,717.5,1,k,k,0,1,797.9999999999999,k,k,1,memory_color_short,0.5,-0.5,0.7175,TRUE,TRUE,TRUE,FALSE
NA,0.91,NA,NA,NA,NA,NA,NA,NA,NA,j,red,558812eefdf99b14f004b722,2021-09-27_16h11.00.912,forced_choiceRT_color,2021.2.3,Win32,30.0120048,NA,NA,NA,NA,NA,NA,NA,7,Ontime,short,d,0,1.985,8,2,34,2,1,NA,NA,NA,NA,NA,1985,537.5000000000001,0,d,j,1,1,717.5,k,k,0,memory_color_short,-0.5,-0.5,0.5375000000000001,FALSE,FALSE,FALSE,FALSE
NA,1.62,NA,NA,NA,NA,NA,NA,NA,NA,d,orange,558812eefdf99b14f004b722,2021-09-27_16h11.00.912,forced_choiceRT_color,2021.2.3,Win32,30.0120048,NA,NA,NA,NA,NA,NA,NA,7,Ontime,short,k,0,2.024,8,3,35,0,1,NA,NA,NA,NA,NA,2024,201.99999999999994,0,k,d,1,0,537.5000000000001,d,j,0,memory_color_short,-0.5,0.5,0.20199999999999993,FALSE,FALSE,TRUE,FALSE
NA,1.78,NA,NA,NA,NA,NA,NA,NA,NA,d,orange,558812eefdf99b14f004b722,2021-09-27_16h11.00.912,forced_choiceRT_color,2021.2.3,Win32,30.0120048,NA,NA,NA,NA,NA,NA,NA,7,Ontime,short,d,1,2.051,9,0,36,0,1,NA,NA,NA,NA,NA,2051,135.50000000000006,1,d,d,0,0,201.99999999999994,k,d,1,memory_color_short,0.5,0.5,0.13550000000000006,FALSE,TRUE,FALSE,FALSE
NA,0.74,NA,NA,NA,NA,NA,NA,NA,NA,f,blue,558812eefdf99b14f004b722,2021-09-27_16h11.00.912,forced_choiceRT_color,2021.2.3,Win32,30.0120048,NA,NA,NA,NA,NA,NA,NA,7,Ontime,short,f,1,1.93,9,1,37,1,1,NA,NA,NA,NA,NA,1930,595,1,f,f,0,1,135.50000000000006,d,d,1,memory_color_short,0.5,-0.5,0.595,FALSE,FALSE,FALSE,FALSE
NA,0.14,NA,NA,NA,NA,NA,NA,NA,NA,j,red,558812eefdf99b14f004b722,2021-09-27_16h11.00.912,forced_choiceRT_color,2021.2.3,Win32,30.0120048,NA,NA,NA,NA,NA,NA,NA,7,Ontime,short,j,1,1.933,9,2,38,2,1,NA,NA,NA,NA,NA,1933,896.5000000000001,1,j,j,1,1,595,f,f,1,memory_color_short,-0.5,-0.5,0.8965000000000001,FALSE,FALSE,FALSE,FALSE
NA,1.53,NA,NA,NA,NA,NA,NA,NA,NA,d,orange,558812eefdf99b14f004b722,2021-09-27_16h11.00.912,forced_choiceRT_color,2021.2.3,Win32,30.0120048,NA,NA,NA,NA,NA,NA,NA,7,Ontime,short,k,0,2.009,9,3,39,0,1,NA,NA,NA,NA,NA,2009,239.49999999999994,0,k,d,1,1,896.5000000000001,j,j,0,memory_color_short,-0.5,-0.5,0.23949999999999994,FALSE,FALSE,FALSE,FALSE
NA,1.8,NA,NA,NA,NA,NA,NA,NA,NA,k,purple,558812eefdf99b14f004b722,2021-09-27_16h11.00.912,forced_choiceRT_color,2021.2.3,Win32,30.0120048,NA,NA,NA,NA,NA,NA,NA,8,Ontime,short,d,0,1.989,0,0,0,3,1,NA,NA,NA,NA,NA,1989,94.50000000000003,0,d,k,1,0,239.49999999999994,k,d,0,memory_color_short,-0.5,0.5,0.09450000000000003,FALSE,FALSE,TRUE,FALSE
NA,1.46,NA,NA,NA,NA,NA,NA,NA,NA,f,blue,558812eefdf99b14f004b722,2021-09-27_16h11.00.912,forced_choiceRT_color,2021.2.3,Win32,30.0120048,NA,NA,NA,NA,NA,NA,NA,8,Ontime,short,k,0,1.98,0,1,1,1,1,NA,NA,NA,NA,NA,1980,260,0,k,f,0,0,94.50000000000003,d,k,0,memory_color_short,0.5,0.5,0.26,FALSE,FALSE,FALSE,TRUE
NA,1.62,NA,NA,NA,NA,NA,NA,NA,NA,j,red,558812eefdf99b14f004b722,2021-09-27_16h11.00.912,forced_choiceRT_color,2021.2.3,Win32,30.0120048,NA,NA,NA,NA,NA,NA,NA,8,Ontime,short,f,0,1.971,0,2,2,2,1,NA,NA,NA,NA,NA,1971,175.5,0,f,j,0,0,260,k,f,0,memory_color_short,0.5,0.5,0.1755,FALSE,FALSE,FALSE,FALSE
NA,1.93,NA,NA,NA,NA,NA,NA,NA,NA,f,blue,558812eefdf99b14f004b722,2021-09-27_16h11.00.912,forced_choiceRT_color,2021.2.3,Win32,30.0120048,NA,NA,NA,NA,NA,NA,NA,8,Ontime,short,j,0,1.931,0,3,3,1,1,NA,NA,NA,NA,NA,1931,0.500000000000056,0,j,f,0,0,175.5,f,j,0,memory_color_short,0.5,0.5,5.00000000000056e-4,FALSE,FALSE,TRUE,FALSE
NA,0.76,NA,NA,NA,NA,NA,NA,NA,NA,d,orange,558812eefdf99b14f004b722,2021-09-27_16h11.00.912,forced_choiceRT_color,2021.2.3,Win32,30.0120048,NA,NA,NA,NA,NA,NA,NA,8,Ontime,short,d,1,1.996,1,2,6,0,1,NA,NA,NA,NA,NA,1996,618,1,d,d,1,0,251,d,k,1,memory_color_short,-0.5,0.5,0.618,TRUE,FALSE,TRUE,FALSE
NA,1.07,NA,NA,NA,NA,NA,NA,NA,NA,f,blue,558812eefdf99b14f004b722,2021-09-27_16h11.00.912,forced_choiceRT_color,2021.2.3,Win32,30.0120048,NA,NA,NA,NA,NA,NA,NA,8,Ontime,short,f,1,2.046,1,3,7,1,1,NA,NA,NA,NA,NA,2045.9999999999998,487.9999999999999,1,f,f,0,1,618,d,d,1,memory_color_short,0.5,-0.5,0.4879999999999999,FALSE,FALSE,FALSE,FALSE
NA,1.17,NA,NA,NA,NA,NA,NA,NA,NA,f,blue,558812eefdf99b14f004b722,2021-09-27_16h11.00.912,forced_choiceRT_color,2021.2.3,Win32,30.0120048,NA,NA,NA,NA,NA,NA,NA,8,Ontime,short,f,1,2.01,2,0,8,1,1,NA,NA,NA,NA,NA,2009.9999999999998,419.99999999999994,1,f,f,1,1,487.9999999999999,f,f,1,memory_color_short,-0.5,-0.5,0.41999999999999993,TRUE,TRUE,TRUE,FALSE
NA,1,NA,NA,NA,NA,NA,NA,NA,NA,f,blue,558812eefdf99b14f004b722,2021-09-27_16h11.00.912,forced_choiceRT_color,2021.2.3,Win32,30.0120048,NA,NA,NA,NA,NA,NA,NA,8,Ontime,short,f,1,2.07,2,1,9,1,1,NA,NA,NA,NA,NA,2070,534.9999999999999,1,f,f,1,1,419.99999999999994,f,f,1,memory_color_short,-0.5,-0.5,0.5349999999999999,TRUE,TRUE,TRUE,FALSE
NA,1.68,NA,NA,NA,NA,NA,NA,NA,NA,d,orange,558812eefdf99b14f004b722,2021-09-27_16h11.00.912,forced_choiceRT_color,2021.2.3,Win32,30.0120048,NA,NA,NA,NA,NA,NA,NA,8,Ontime,short,k,0,2.076,2,2,10,0,1,NA,NA,NA,NA,NA,2076,198.00000000000006,0,k,d,1,1,534.9999999999999,f,f,0,memory_color_short,-0.5,-0.5,0.19800000000000006,FALSE,FALSE,FALSE,FALSE
NA,0.36,NA,NA,NA,NA,NA,NA,NA,NA,f,blue,558812eefdf99b14f004b722,2021-09-27_16h11.00.912,forced_choiceRT_color,2021.2.3,Win32,30.0120048,NA,NA,NA,NA,NA,NA,NA,8,Ontime,short,f,1,1.966,2,3,11,1,1,NA,NA,NA,NA,NA,1966,802.9999999999999,1,f,f,1,0,198.00000000000006,k,d,1,memory_color_short,-0.5,0.5,0.8029999999999999,FALSE,FALSE,FALSE,FALSE
NA,0.85,NA,NA,NA,NA,NA,NA,NA,NA,d,orange,558812eefdf99b14f004b722,2021-09-27_16h11.00.912,forced_choiceRT_color,2021.2.3,Win32,30.0120048,NA,NA,NA,NA,NA,NA,NA,8,Ontime,short,d,1,2.023,3,0,12,0,1,NA,NA,NA,NA,NA,2023.0000000000002,586.5,1,d,d,0,1,802.9999999999999,f,f,1,memory_color_short,0.5,-0.5,0.5865,FALSE,FALSE,FALSE,FALSE
NA,0.04,NA,NA,NA,NA,NA,NA,NA,NA,k,purple,558812eefdf99b14f004b722,2021-09-27_16h11.00.912,forced_choiceRT_color,2021.2.3,Win32,30.0120048,NA,NA,NA,NA,NA,NA,NA,8,Ontime,short,k,1,2.031,3,1,13,3,1,NA,NA,NA,NA,NA,2031.0000000000002,995.5,1,k,k,1,1,586.5,d,d,1,memory_color_short,-0.5,-0.5,0.9955,FALSE,FALSE,FALSE,FALSE
NA,0.31,NA,NA,NA,NA,NA,NA,NA,NA,k,purple,558812eefdf99b14f004b722,2021-09-27_16h11.00.912,forced_choiceRT_color,2021.2.3,Win32,30.0120048,NA,NA,NA,NA,NA,NA,NA,8,Ontime,short,k,1,1.941,3,2,14,3,1,NA,NA,NA,NA,NA,1941,815.5,1,k,k,1,1,995.5,k,k,1,memory_color_short,-0.5,-0.5,0.8155,TRUE,TRUE,TRUE,FALSE
NA,1.94,NA,NA,NA,NA,NA,NA,NA,NA,j,red,558812eefdf99b14f004b722,2021-09-27_16h11.00.912,forced_choiceRT_color,2021.2.3,Win32,30.0120048,NA,NA,NA,NA,NA,NA,NA,8,Ontime,short,k,0,1.973,3,3,15,2,1,NA,NA,NA,NA,NA,1973,16.50000000000007,0,k,j,1,1,815.5,k,k,0,memory_color_short,-0.5,-0.5,0.01650000000000007,TRUE,FALSE,FALSE,FALSE
NA,1.82,NA,NA,NA,NA,NA,NA,NA,NA,j,red,558812eefdf99b14f004b722,2021-09-27_16h11.00.912,forced_choiceRT_color,2021.2.3,Win32,30.0120048,NA,NA,NA,NA,NA,NA,NA,8,Ontime,short,k,0,2.072,4,0,16,2,1,NA,NA,NA,NA,NA,2072,126,0,k,j,1,0,16.50000000000007,k,j,0,memory_color_short,-0.5,0.5,0.126,TRUE,TRUE,FALSE,TRUE
NA,0.36,NA,NA,NA,NA,NA,NA,NA,NA,d,orange,558812eefdf99b14f004b722,2021-09-27_16h11.00.912,forced_choiceRT_color,2021.2.3,Win32,30.0120048,NA,NA,NA,NA,NA,NA,NA,8,Ontime,short,d,1,1.972,4,1,17,0,1,NA,NA,NA,NA,NA,1972,806,1,d,d,0,0,126,k,j,1,memory_color_short,0.5,0.5,0.806,FALSE,FALSE,FALSE,FALSE
NA,0.27,NA,NA,NA,NA,NA,NA,NA,NA,f,blue,558812eefdf99b14f004b722,2021-09-27_16h11.00.912,forced_choiceRT_color,2021.2.3,Win32,30.0120048,NA,NA,NA,NA,NA,NA,NA,8,Ontime,short,f,1,2.061,4,2,18,1,1,NA,NA,NA,NA,NA,2061,895.5,1,f,f,0,1,806,d,d,1,memory_color_short,0.5,-0.5,0.8955,FALSE,FALSE,FALSE,FALSE
NA,0.97,NA,NA,NA,NA,NA,NA,NA,NA,k,purple,558812eefdf99b14f004b722,2021-09-27_16h11.00.912,forced_choiceRT_color,2021.2.3,Win32,30.0120048,NA,NA,NA,NA,NA,NA,NA,8,Ontime,short,k,1,1.971,4,3,19,3,1,NA,NA,NA,NA,NA,1971,500.50000000000006,1,k,k,1,1,895.5,f,f,1,memory_color_short,-0.5,-0.5,0.5005000000000001,FALSE,FALSE,FALSE,FALSE
NA,1.98,NA,NA,NA,NA,NA,NA,NA,NA,k,purple,558812eefdf99b14f004b722,2021-09-27_16h11.00.912,forced_choiceRT_color,2021.2.3,Win32,30.0120048,NA,NA,NA,NA,NA,NA,NA,8,Ontime,short,j,0,2.019,5,0,20,3,1,NA,NA,NA,NA,NA,2019.0000000000002,19.50000000000007,0,j,k,1,1,500.50000000000006,k,k,0,memory_color_short,-0.5,-0.5,0.01950000000000007,FALSE,TRUE,TRUE,FALSE
NA,0.63,NA,NA,NA,NA,NA,NA,NA,NA,d,orange,558812eefdf99b14f004b722,2021-09-27_16h11.00.912,forced_choiceRT_color,2021.2.3,Win32,30.0120048,NA,NA,NA,NA,NA,NA,NA,8,Ontime,short,d,1,1.971,5,2,22,0,1,NA,NA,NA,NA,NA,1971,670.5000000000001,1,d,d,0,0,-4.0000000000000036,j,k,1,memory_color_short,0.5,0.5,0.6705000000000001,FALSE,FALSE,FALSE,TRUE
NA,0.05,NA,NA,NA,NA,NA,NA,NA,NA,d,orange,558812eefdf99b14f004b722,2021-09-27_16h11.00.912,forced_choiceRT_color,2021.2.3,Win32,30.0120048,NA,NA,NA,NA,NA,NA,NA,8,Ontime,short,d,1,2.004,5,3,23,0,1,NA,NA,NA,NA,NA,2004,977,1,d,d,0,1,670.5000000000001,d,d,1,memory_color_short,0.5,-0.5,0.977,TRUE,TRUE,TRUE,FALSE
NA,0.15,NA,NA,NA,NA,NA,NA,NA,NA,k,purple,558812eefdf99b14f004b722,2021-09-27_16h11.00.912,forced_choiceRT_color,2021.2.3,Win32,30.0120048,NA,NA,NA,NA,NA,NA,NA,8,Ontime,short,k,1,2.026,6,0,24,3,1,NA,NA,NA,NA,NA,2025.9999999999998,938,1,k,k,1,1,977,d,d,1,memory_color_short,-0.5,-0.5,0.938,FALSE,FALSE,FALSE,FALSE
NA,1.22,NA,NA,NA,NA,NA,NA,NA,NA,j,red,558812eefdf99b14f004b722,2021-09-27_16h11.00.912,forced_choiceRT_color,2021.2.3,Win32,30.0120048,NA,NA,NA,NA,NA,NA,NA,8,Ontime,short,j,1,2.005,6,1,25,2,1,NA,NA,NA,NA,NA,2005,392.49999999999994,1,j,j,1,1,938,k,k,1,memory_color_short,-0.5,-0.5,0.39249999999999996,FALSE,FALSE,FALSE,FALSE
NA,1.3,NA,NA,NA,NA,NA,NA,NA,NA,j,red,558812eefdf99b14f004b722,2021-09-27_16h11.00.912,forced_choiceRT_color,2021.2.3,Win32,30.0120048,NA,NA,NA,NA,NA,NA,NA,8,Ontime,short,j,1,1.989,6,2,26,2,1,NA,NA,NA,NA,NA,1989,344.5,1,j,j,1,1,392.49999999999994,j,j,1,memory_color_short,-0.5,-0.5,0.3445,TRUE,TRUE,TRUE,FALSE
NA,1.7,NA,NA,NA,NA,NA,NA,NA,NA,f,blue,558812eefdf99b14f004b722,2021-09-27_16h11.00.912,forced_choiceRT_color,2021.2.3,Win32,30.0120048,NA,NA,NA,NA,NA,NA,NA,8,Ontime,short,j,0,1.965,6,3,27,1,1,NA,NA,NA,NA,NA,1965,132.50000000000006,0,j,f,1,1,344.5,j,j,0,memory_color_short,-0.5,-0.5,0.13250000000000006,TRUE,FALSE,FALSE,FALSE
NA,1.67,NA,NA,NA,NA,NA,NA,NA,NA,j,red,558812eefdf99b14f004b722,2021-09-27_16h11.00.912,forced_choiceRT_color,2021.2.3,Win32,30.0120048,NA,NA,NA,NA,NA,NA,NA,8,Ontime,short,k,0,2.023,7,1,29,2,1,NA,NA,NA,NA,NA,2023.0000000000002,176.5000000000001,0,k,j,0,1,359.50000000000006,j,j,0,memory_color_short,0.5,-0.5,0.1765000000000001,FALSE,TRUE,TRUE,FALSE
NA,0.84,NA,NA,NA,NA,NA,NA,NA,NA,j,red,558812eefdf99b14f004b722,2021-09-27_16h11.00.912,forced_choiceRT_color,2021.2.3,Win32,30.0120048,NA,NA,NA,NA,NA,NA,NA,8,Ontime,short,j,1,1.959,7,3,31,2,1,NA,NA,NA,NA,NA,1959,559.5000000000001,1,j,j,0,1,805,f,f,1,memory_color_short,0.5,-0.5,0.5595000000000001,FALSE,FALSE,FALSE,FALSE
NA,0.88,NA,NA,NA,NA,NA,NA,NA,NA,d,orange,558812eefdf99b14f004b722,2021-09-27_16h11.00.912,forced_choiceRT_color,2021.2.3,Win32,30.0120048,NA,NA,NA,NA,NA,NA,NA,8,Ontime,short,d,1,1.984,8,0,32,0,1,NA,NA,NA,NA,NA,1984,552,1,d,d,1,1,559.5000000000001,j,j,1,memory_color_short,-0.5,-0.5,0.552,FALSE,FALSE,FALSE,FALSE
NA,1.74,NA,NA,NA,NA,NA,NA,NA,NA,f,blue,558812eefdf99b14f004b722,2021-09-27_16h11.00.912,forced_choiceRT_color,2021.2.3,Win32,30.0120048,NA,NA,NA,NA,NA,NA,NA,8,Ontime,short,d,0,1.939,8,1,33,1,1,NA,NA,NA,NA,NA,1939,99.50000000000003,0,d,f,1,1,552,d,d,0,memory_color_short,-0.5,-0.5,0.09950000000000003,TRUE,FALSE,FALSE,FALSE
NA,0.77,NA,NA,NA,NA,NA,NA,NA,NA,j,red,558812eefdf99b14f004b722,2021-09-27_16h11.00.912,forced_choiceRT_color,2021.2.3,Win32,30.0120048,NA,NA,NA,NA,NA,NA,NA,8,Ontime,short,j,1,1.961,8,2,34,2,1,NA,NA,NA,NA,NA,1961,595.5,1,j,j,1,0,99.50000000000003,d,f,1,memory_color_short,-0.5,0.5,0.5955,FALSE,FALSE,FALSE,TRUE
NA,1.93,NA,NA,NA,NA,NA,NA,NA,NA,d,orange,558812eefdf99b14f004b722,2021-09-27_16h11.00.912,forced_choiceRT_color,2021.2.3,Win32,30.0120048,NA,NA,NA,NA,NA,NA,NA,8,Ontime,short,j,0,1.948,8,3,35,0,1,NA,NA,NA,NA,NA,1948,9.000000000000007,0,j,d,0,1,595.5,j,j,0,memory_color_short,0.5,-0.5,0.009000000000000006,TRUE,FALSE,FALSE,FALSE
NA,1.48,NA,NA,NA,NA,NA,NA,NA,NA,k,purple,558812eefdf99b14f004b722,2021-09-27_16h11.00.912,forced_choiceRT_color,2021.2.3,Win32,30.0120048,NA,NA,NA,NA,NA,NA,NA,8,Ontime,short,k,1,2.017,9,0,36,3,1,NA,NA,NA,NA,NA,2017,268.49999999999994,1,k,k,1,0,9.000000000000007,j,d,1,memory_color_short,-0.5,0.5,0.26849999999999996,FALSE,FALSE,FALSE,TRUE
NA,0.97,NA,NA,NA,NA,NA,NA,NA,NA,j,red,558812eefdf99b14f004b722,2021-09-27_16h11.00.912,forced_choiceRT_color,2021.2.3,Win32,30.0120048,NA,NA,NA,NA,NA,NA,NA,8,Ontime,short,j,1,1.947,9,2,38,2,1,NA,NA,NA,NA,NA,1947,488.50000000000006,1,j,j,1,1,871.4999999999999,d,d,1,memory_color_short,-0.5,-0.5,0.48850000000000005,FALSE,FALSE,FALSE,FALSE
NA,1.92,NA,NA,NA,NA,NA,NA,NA,NA,k,purple,558812eefdf99b14f004b722,2021-09-27_16h11.00.912,forced_choiceRT_color,2021.2.3,Win32,30.0120048,NA,NA,NA,NA,NA,NA,NA,8,Ontime,short,j,0,2.011,9,3,39,3,1,NA,NA,NA,NA,NA,2011.0000000000002,45.5000000000001,0,j,k,1,1,488.50000000000006,j,j,0,memory_color_short,-0.5,-0.5,0.0455000000000001,TRUE,FALSE,FALSE,FALSE
NA,0.89,NA,NA,NA,NA,NA,NA,NA,NA,d,orange,558812eefdf99b14f004b722,2021-09-27_16h11.00.912,forced_choiceRT_color,2021.2.3,Win32,30.0120048,NA,NA,NA,NA,NA,NA,NA,9,Ontime,short,d,1,2.056,0,1,1,0,1,NA,NA,NA,NA,NA,2056,583,1,d,d,0,1,979.0000000000001,d,d,1,memory_color_short,0.5,-0.5,0.583,TRUE,TRUE,TRUE,FALSE
NA,0.28,NA,NA,NA,NA,NA,NA,NA,NA,f,blue,558812eefdf99b14f004b722,2021-09-27_16h11.00.912,forced_choiceRT_color,2021.2.3,Win32,30.0120048,NA,NA,NA,NA,NA,NA,NA,9,Ontime,short,f,1,1.994,0,2,2,1,1,NA,NA,NA,NA,NA,1994,857,1,f,f,1,1,583,d,d,1,memory_color_short,-0.5,-0.5,0.857,FALSE,FALSE,FALSE,FALSE
NA,0.33,NA,NA,NA,NA,NA,NA,NA,NA,f,blue,558812eefdf99b14f004b722,2021-09-27_16h11.00.912,forced_choiceRT_color,2021.2.3,Win32,30.0120048,NA,NA,NA,NA,NA,NA,NA,9,Ontime,short,f,1,1.959,0,3,3,1,1,NA,NA,NA,NA,NA,1959,814.5,1,f,f,1,1,857,f,f,1,memory_color_short,-0.5,-0.5,0.8145,TRUE,TRUE,TRUE,FALSE
NA,1.37,NA,NA,NA,NA,NA,NA,NA,NA,d,orange,558812eefdf99b14f004b722,2021-09-27_16h11.00.912,forced_choiceRT_color,2021.2.3,Win32,30.0120048,NA,NA,NA,NA,NA,NA,NA,9,Ontime,short,d,1,1.97,1,1,5,0,1,NA,NA,NA,NA,NA,1970,299.99999999999994,1,d,d,1,1,297.5,d,d,1,memory_color_short,-0.5,-0.5,0.29999999999999993,TRUE,TRUE,TRUE,FALSE
NA,1.43,NA,NA,NA,NA,NA,NA,NA,NA,d,orange,558812eefdf99b14f004b722,2021-09-27_16h11.00.912,forced_choiceRT_color,2021.2.3,Win32,30.0120048,NA,NA,NA,NA,NA,NA,NA,9,Ontime,short,d,1,2.067,1,2,6,0,1,NA,NA,NA,NA,NA,2067,318.5000000000001,1,d,d,1,1,299.99999999999994,d,d,1,memory_color_short,-0.5,-0.5,0.3185000000000001,TRUE,TRUE,TRUE,FALSE
NA,1.64,NA,NA,NA,NA,NA,NA,NA,NA,f,blue,558812eefdf99b14f004b722,2021-09-27_16h11.00.912,forced_choiceRT_color,2021.2.3,Win32,30.0120048,NA,NA,NA,NA,NA,NA,NA,9,Ontime,short,d,0,2.054,1,3,7,1,1,NA,NA,NA,NA,NA,2054,206.99999999999997,0,d,f,1,1,318.5000000000001,d,d,0,memory_color_short,-0.5,-0.5,0.20699999999999996,TRUE,FALSE,FALSE,FALSE
NA,0.9,NA,NA,NA,NA,NA,NA,NA,NA,k,purple,558812eefdf99b14f004b722,2021-09-27_16h11.00.912,forced_choiceRT_color,2021.2.3,Win32,30.0120048,NA,NA,NA,NA,NA,NA,NA,9,Ontime,short,k,1,2.034,2,1,9,3,1,NA,NA,NA,NA,NA,2033.9999999999998,567,1,k,k,0,0,-565.5,f,k,1,memory_color_short,0.5,0.5,0.567,FALSE,TRUE,FALSE,TRUE
NA,1.27,NA,NA,NA,NA,NA,NA,NA,NA,f,blue,558812eefdf99b14f004b722,2021-09-27_16h11.00.912,forced_choiceRT_color,2021.2.3,Win32,30.0120048,NA,NA,NA,NA,NA,NA,NA,9,Ontime,short,j,0,2.088,2,2,10,1,1,NA,NA,NA,NA,NA,2088,409.00000000000006,0,j,f,0,1,567,k,k,0,memory_color_short,0.5,-0.5,0.40900000000000003,FALSE,FALSE,FALSE,FALSE
NA,0.27,NA,NA,NA,NA,NA,NA,NA,NA,f,blue,558812eefdf99b14f004b722,2021-09-27_16h11.00.912,forced_choiceRT_color,2021.2.3,Win32,30.0120048,NA,NA,NA,NA,NA,NA,NA,9,Ontime,short,f,1,2.057,2,3,11,1,1,NA,NA,NA,NA,NA,2057,893.5,1,f,f,1,0,409.00000000000006,j,f,1,memory_color_short,-0.5,0.5,0.8935,FALSE,TRUE,FALSE,FALSE
NA,1.21,NA,NA,NA,NA,NA,NA,NA,NA,k,purple,558812eefdf99b14f004b722,2021-09-27_16h11.00.912,forced_choiceRT_color,2021.2.3,Win32,30.0120048,NA,NA,NA,NA,NA,NA,NA,9,Ontime,short,k,1,2.049,3,0,12,3,1,NA,NA,NA,NA,NA,2049,419.5,1,k,k,0,1,893.5,f,f,1,memory_color_short,0.5,-0.5,0.4195,FALSE,FALSE,FALSE,FALSE
NA,0.45,NA,NA,NA,NA,NA,NA,NA,NA,k,purple,558812eefdf99b14f004b722,2021-09-27_16h11.00.912,forced_choiceRT_color,2021.2.3,Win32,30.0120048,NA,NA,NA,NA,NA,NA,NA,9,Ontime,short,k,1,2.056,3,1,13,3,1,NA,NA,NA,NA,NA,2056,803,1,k,k,1,1,419.5,k,k,1,memory_color_short,-0.5,-0.5,0.803,TRUE,TRUE,TRUE,FALSE
NA,1.14,NA,NA,NA,NA,NA,NA,NA,NA,j,red,558812eefdf99b14f004b722,2021-09-27_16h11.00.912,forced_choiceRT_color,2021.2.3,Win32,30.0120048,NA,NA,NA,NA,NA,NA,NA,9,Ontime,short,j,1,2.059,3,2,14,2,1,NA,NA,NA,NA,NA,2059,459.5000000000001,1,j,j,1,1,803,k,k,1,memory_color_short,-0.5,-0.5,0.45950000000000013,FALSE,FALSE,FALSE,FALSE
NA,0.24,NA,NA,NA,NA,NA,NA,NA,NA,j,red,558812eefdf99b14f004b722,2021-09-27_16h11.00.912,forced_choiceRT_color,2021.2.3,Win32,30.0120048,NA,NA,NA,NA,NA,NA,NA,9,Ontime,short,j,1,2.001,3,3,15,2,1,NA,NA,NA,NA,NA,2001,880.5,1,j,j,1,1,459.5000000000001,j,j,1,memory_color_short,-0.5,-0.5,0.8805,TRUE,TRUE,TRUE,FALSE
NA,1.02,NA,NA,NA,NA,NA,NA,NA,NA,f,blue,558812eefdf99b14f004b722,2021-09-27_16h11.00.912,forced_choiceRT_color,2021.2.3,Win32,30.0120048,NA,NA,NA,NA,NA,NA,NA,9,Ontime,short,f,1,1.908,4,0,16,1,1,NA,NA,NA,NA,NA,1908,443.99999999999994,1,f,f,1,1,880.5,j,j,1,memory_color_short,-0.5,-0.5,0.44399999999999995,FALSE,FALSE,FALSE,FALSE
NA,1.48,NA,NA,NA,NA,NA,NA,NA,NA,f,blue,558812eefdf99b14f004b722,2021-09-27_16h11.00.912,forced_choiceRT_color,2021.2.3,Win32,30.0120048,NA,NA,NA,NA,NA,NA,NA,9,Ontime,short,f,1,2.015,4,1,17,1,1,NA,NA,NA,NA,NA,2015.0000000000002,267.50000000000006,1,f,f,1,1,443.99999999999994,f,f,1,memory_color_short,-0.5,-0.5,0.26750000000000007,TRUE,TRUE,TRUE,FALSE
NA,1.1,NA,NA,NA,NA,NA,NA,NA,NA,d,orange,558812eefdf99b14f004b722,2021-09-27_16h11.00.912,forced_choiceRT_color,2021.2.3,Win32,30.0120048,NA,NA,NA,NA,NA,NA,NA,9,Ontime,short,d,1,2.039,4,2,18,0,1,NA,NA,NA,NA,NA,2039.0000000000002,469.5,1,d,d,1,1,267.50000000000006,f,f,1,memory_color_short,-0.5,-0.5,0.4695,FALSE,FALSE,FALSE,FALSE
NA,1.88,NA,NA,NA,NA,NA,NA,NA,NA,j,red,558812eefdf99b14f004b722,2021-09-27_16h11.00.912,forced_choiceRT_color,2021.2.3,Win32,30.0120048,NA,NA,NA,NA,NA,NA,NA,9,Ontime,short,f,0,2.051,4,3,19,2,1,NA,NA,NA,NA,NA,2051,85.50000000000013,0,f,j,1,1,469.5,d,d,0,memory_color_short,-0.5,-0.5,0.08550000000000013,FALSE,FALSE,FALSE,FALSE
NA,1.35,NA,NA,NA,NA,NA,NA,NA,NA,j,red,558812eefdf99b14f004b722,2021-09-27_16h11.00.912,forced_choiceRT_color,2021.2.3,Win32,30.0120048,NA,NA,NA,NA,NA,NA,NA,9,Ontime,short,j,1,2.084,5,0,20,2,1,NA,NA,NA,NA,NA,2084,367,1,j,j,1,0,85.50000000000013,f,j,1,memory_color_short,-0.5,0.5,0.367,FALSE,TRUE,FALSE,TRUE
NA,0.63,NA,NA,NA,NA,NA,NA,NA,NA,k,purple,558812eefdf99b14f004b722,2021-09-27_16h11.00.912,forced_choiceRT_color,2021.2.3,Win32,30.0120048,NA,NA,NA,NA,NA,NA,NA,9,Ontime,short,k,1,2.049,5,2,22,3,1,NA,NA,NA,NA,NA,2049,709.5,1,k,k,1,0,-965.5,f,k,1,memory_color_short,-0.5,0.5,0.7095,FALSE,TRUE,FALSE,TRUE
NA,0.36,NA,NA,NA,NA,NA,NA,NA,NA,j,red,558812eefdf99b14f004b722,2021-09-27_16h11.00.912,forced_choiceRT_color,2021.2.3,Win32,30.0120048,NA,NA,NA,NA,NA,NA,NA,9,Ontime,short,j,1,2.058,5,3,23,2,1,NA,NA,NA,NA,NA,2058,849,1,j,j,0,1,709.5,k,k,1,memory_color_short,0.5,-0.5,0.849,FALSE,FALSE,FALSE,FALSE
NA,1.41,NA,NA,NA,NA,NA,NA,NA,NA,f,blue,558812eefdf99b14f004b722,2021-09-27_16h11.00.912,forced_choiceRT_color,2021.2.3,Win32,30.0120048,NA,NA,NA,NA,NA,NA,NA,9,Ontime,short,d,0,2.018,6,0,24,1,1,NA,NA,NA,NA,NA,2017.9999999999998,303.99999999999994,0,d,f,1,1,849,j,j,0,memory_color_short,-0.5,-0.5,0.30399999999999994,FALSE,FALSE,FALSE,FALSE
NA,0.14,NA,NA,NA,NA,NA,NA,NA,NA,f,blue,558812eefdf99b14f004b722,2021-09-27_16h11.00.912,forced_choiceRT_color,2021.2.3,Win32,30.0120048,NA,NA,NA,NA,NA,NA,NA,9,Ontime,short,f,1,2.078,6,2,26,1,1,NA,NA,NA,NA,NA,2078,968.9999999999999,1,f,f,0,0,-365,k,f,1,memory_color_short,0.5,0.5,0.9689999999999999,FALSE,TRUE,FALSE,TRUE
NA,1.23,NA,NA,NA,NA,NA,NA,NA,NA,d,orange,558812eefdf99b14f004b722,2021-09-27_16h11.00.912,forced_choiceRT_color,2021.2.3,Win32,30.0120048,NA,NA,NA,NA,NA,NA,NA,9,Ontime,short,d,1,1.994,6,3,27,0,1,NA,NA,NA,NA,NA,1994,382,1,d,d,0,1,968.9999999999999,f,f,1,memory_color_short,0.5,-0.5,0.382,FALSE,FALSE,FALSE,FALSE
NA,0.87,NA,NA,NA,NA,NA,NA,NA,NA,j,red,558812eefdf99b14f004b722,2021-09-27_16h11.00.912,forced_choiceRT_color,2021.2.3,Win32,30.0120048,NA,NA,NA,NA,NA,NA,NA,9,Ontime,short,j,1,2.056,7,0,28,2,1,NA,NA,NA,NA,NA,2056,593,1,j,j,1,1,382,d,d,1,memory_color_short,-0.5,-0.5,0.593,FALSE,FALSE,FALSE,FALSE
NA,1.4,NA,NA,NA,NA,NA,NA,NA,NA,j,red,558812eefdf99b14f004b722,2021-09-27_16h11.00.912,forced_choiceRT_color,2021.2.3,Win32,30.0120048,NA,NA,NA,NA,NA,NA,NA,9,Ontime,short,f,0,2.011,7,1,29,2,1,NA,NA,NA,NA,NA,2011.0000000000002,305.5000000000001,0,f,j,1,1,593,j,j,0,memory_color_short,-0.5,-0.5,0.3055000000000001,FALSE,TRUE,TRUE,FALSE
NA,0.32,NA,NA,NA,NA,NA,NA,NA,NA,k,purple,558812eefdf99b14f004b722,2021-09-27_16h11.00.912,forced_choiceRT_color,2021.2.3,Win32,30.0120048,NA,NA,NA,NA,NA,NA,NA,9,Ontime,short,k,1,1.963,7,3,31,3,1,NA,NA,NA,NA,NA,1963,821.5,1,k,k,0,1,-543.9999999999999,j,j,1,memory_color_short,0.5,-0.5,0.8215,FALSE,FALSE,FALSE,TRUE
NA,0.41,NA,NA,NA,NA,NA,NA,NA,NA,j,red,558812eefdf99b14f004b722,2021-09-27_16h11.00.912,forced_choiceRT_color,2021.2.3,Win32,30.0120048,NA,NA,NA,NA,NA,NA,NA,9,Ontime,short,j,1,1.959,8,0,32,2,1,NA,NA,NA,NA,NA,1959,774.5000000000001,1,j,j,1,1,821.5,k,k,1,memory_color_short,-0.5,-0.5,0.7745000000000001,FALSE,FALSE,FALSE,FALSE
NA,0.87,NA,NA,NA,NA,NA,NA,NA,NA,k,purple,558812eefdf99b14f004b722,2021-09-27_16h11.00.912,forced_choiceRT_color,2021.2.3,Win32,30.0120048,NA,NA,NA,NA,NA,NA,NA,9,Ontime,short,k,1,1.916,8,1,33,3,1,NA,NA,NA,NA,NA,1916,522.9999999999999,1,k,k,1,1,774.5000000000001,j,j,1,memory_color_short,-0.5,-0.5,0.5229999999999999,FALSE,FALSE,FALSE,FALSE
NA,0.43,NA,NA,NA,NA,NA,NA,NA,NA,k,purple,558812eefdf99b14f004b722,2021-09-27_16h11.00.912,forced_choiceRT_color,2021.2.3,Win32,30.0120048,NA,NA,NA,NA,NA,NA,NA,9,Ontime,short,k,1,1.948,8,2,34,3,1,NA,NA,NA,NA,NA,1948,759,1,k,k,1,1,522.9999999999999,k,k,1,memory_color_short,-0.5,-0.5,0.759,TRUE,TRUE,TRUE,FALSE
NA,1.65,NA,NA,NA,NA,NA,NA,NA,NA,d,orange,558812eefdf99b14f004b722,2021-09-27_16h11.00.912,forced_choiceRT_color,2021.2.3,Win32,30.0120048,NA,NA,NA,NA,NA,NA,NA,9,Ontime,short,k,0,1.997,8,3,35,0,1,NA,NA,NA,NA,NA,1997,173.50000000000009,0,k,d,1,1,759,k,k,0,memory_color_short,-0.5,-0.5,0.1735000000000001,TRUE,FALSE,FALSE,FALSE
NA,0.6,NA,NA,NA,NA,NA,NA,NA,NA,d,orange,558812eefdf99b14f004b722,2021-09-27_16h11.00.912,forced_choiceRT_color,2021.2.3,Win32,30.0120048,NA,NA,NA,NA,NA,NA,NA,9,Ontime,short,d,1,2.071,9,2,38,0,1,NA,NA,NA,NA,NA,2071,735.5,1,d,d,1,1,921.9999999999999,d,d,1,memory_color_short,-0.5,-0.5,0.7355,TRUE,TRUE,TRUE,FALSE
NA,1.99,NA,NA,NA,NA,NA,NA,NA,NA,k,purple,558812eefdf99b14f004b722,2021-09-27_16h11.00.912,forced_choiceRT_color,2021.2.3,Win32,30.0120048,NA,NA,NA,NA,NA,NA,NA,9,Ontime,short,d,0,2.063,9,3,39,3,1,NA,NA,NA,NA,NA,2063,36.500000000000085,0,d,k,1,1,735.5,d,d,0,memory_color_short,-0.5,-0.5,0.03650000000000009,TRUE,FALSE,FALSE,FALSE
NA,1.36,NA,NA,NA,NA,NA,NA,NA,NA,d,orange,558812eefdf99b14f004b722,2021-09-27_16h11.00.912,forced_choiceRT_color,2021.2.3,Win32,30.0120048,NA,NA,NA,NA,NA,NA,NA,10,Ontime,short,d,1,2.061,0,0,0,0,1,NA,NA,NA,NA,NA,2061,350.49999999999994,1,d,d,1,0,36.500000000000085,d,k,1,memory_color_short,-0.5,0.5,0.3504999999999999,TRUE,FALSE,TRUE,TRUE
NA,1.22,NA,NA,NA,NA,NA,NA,NA,NA,f,blue,558812eefdf99b14f004b722,2021-09-27_16h11.00.912,forced_choiceRT_color,2021.2.3,Win32,30.0120048,NA,NA,NA,NA,NA,NA,NA,10,Ontime,short,k,0,2.09,0,1,1,1,1,NA,NA,NA,NA,NA,2090,434.99999999999994,0,k,f,0,1,350.49999999999994,d,d,0,memory_color_short,0.5,-0.5,0.43499999999999994,FALSE,FALSE,FALSE,FALSE
NA,0.13,NA,NA,NA,NA,NA,NA,NA,NA,f,blue,558812eefdf99b14f004b722,2021-09-27_16h11.00.912,forced_choiceRT_color,2021.2.3,Win32,30.0120048,NA,NA,NA,NA,NA,NA,NA,10,Ontime,short,f,1,1.994,0,2,2,1,1,NA,NA,NA,NA,NA,1994,931.9999999999999,1,f,f,1,0,434.99999999999994,k,f,1,memory_color_short,-0.5,0.5,0.9319999999999999,FALSE,TRUE,FALSE,FALSE
NA,0.2,NA,NA,NA,NA,NA,NA,NA,NA,j,red,558812eefdf99b14f004b722,2021-09-27_16h11.00.912,forced_choiceRT_color,2021.2.3,Win32,30.0120048,NA,NA,NA,NA,NA,NA,NA,10,Ontime,short,j,1,2.006,0,3,3,2,1,NA,NA,NA,NA,NA,2005.9999999999998,902.9999999999999,1,j,j,0,1,931.9999999999999,f,f,1,memory_color_short,0.5,-0.5,0.9029999999999999,FALSE,FALSE,FALSE,FALSE
NA,0.48,NA,NA,NA,NA,NA,NA,NA,NA,k,purple,558812eefdf99b14f004b722,2021-09-27_16h11.00.912,forced_choiceRT_color,2021.2.3,Win32,30.0120048,NA,NA,NA,NA,NA,NA,NA,10,Ontime,short,k,1,1.998,1,0,4,3,1,NA,NA,NA,NA,NA,1998,759,1,k,k,1,1,902.9999999999999,j,j,1,memory_color_short,-0.5,-0.5,0.759,FALSE,FALSE,FALSE,FALSE
NA,0.54,NA,NA,NA,NA,NA,NA,NA,NA,j,red,558812eefdf99b14f004b722,2021-09-27_16h11.00.912,forced_choiceRT_color,2021.2.3,Win32,30.0120048,NA,NA,NA,NA,NA,NA,NA,10,Ontime,short,j,1,1.95,1,1,5,2,1,NA,NA,NA,NA,NA,1950,705,1,j,j,1,1,759,k,k,1,memory_color_short,-0.5,-0.5,0.705,FALSE,FALSE,FALSE,FALSE
NA,0.96,NA,NA,NA,NA,NA,NA,NA,NA,f,blue,558812eefdf99b14f004b722,2021-09-27_16h11.00.912,forced_choiceRT_color,2021.2.3,Win32,30.0120048,NA,NA,NA,NA,NA,NA,NA,10,Ontime,short,f,1,1.937,1,2,6,1,1,NA,NA,NA,NA,NA,1937,488.50000000000006,1,f,f,1,1,705,j,j,1,memory_color_short,-0.5,-0.5,0.48850000000000005,FALSE,FALSE,FALSE,FALSE
NA,1.1,NA,NA,NA,NA,NA,NA,NA,NA,k,purple,558812eefdf99b14f004b722,2021-09-27_16h11.00.912,forced_choiceRT_color,2021.2.3,Win32,30.0120048,NA,NA,NA,NA,NA,NA,NA,10,Ontime,short,k,1,1.965,1,3,7,3,1,NA,NA,NA,NA,NA,1965,432.5,1,k,k,1,1,488.50000000000006,f,f,1,memory_color_short,-0.5,-0.5,0.4325,FALSE,FALSE,FALSE,FALSE
NA,0.7,NA,NA,NA,NA,NA,NA,NA,NA,f,blue,558812eefdf99b14f004b722,2021-09-27_16h11.00.912,forced_choiceRT_color,2021.2.3,Win32,30.0120048,NA,NA,NA,NA,NA,NA,NA,10,Ontime,short,f,1,1.976,2,0,8,1,1,NA,NA,NA,NA,NA,1976,638,1,f,f,1,1,432.5,k,k,1,memory_color_short,-0.5,-0.5,0.638,FALSE,FALSE,FALSE,FALSE
NA,0.23,NA,NA,NA,NA,NA,NA,NA,NA,f,blue,558812eefdf99b14f004b722,2021-09-27_16h11.00.912,forced_choiceRT_color,2021.2.3,Win32,30.0120048,NA,NA,NA,NA,NA,NA,NA,10,Ontime,short,f,1,1.94,2,1,9,1,1,NA,NA,NA,NA,NA,1940,855,1,f,f,1,1,638,f,f,1,memory_color_short,-0.5,-0.5,0.855,TRUE,TRUE,TRUE,FALSE
NA,0.89,NA,NA,NA,NA,NA,NA,NA,NA,f,blue,558812eefdf99b14f004b722,2021-09-27_16h11.00.912,forced_choiceRT_color,2021.2.3,Win32,30.0120048,NA,NA,NA,NA,NA,NA,NA,10,Ontime,short,f,1,2.028,2,2,10,1,1,NA,NA,NA,NA,NA,2028,569,1,f,f,1,1,855,f,f,1,memory_color_short,-0.5,-0.5,0.569,TRUE,TRUE,TRUE,FALSE
NA,0.72,NA,NA,NA,NA,NA,NA,NA,NA,j,red,558812eefdf99b14f004b722,2021-09-27_16h11.00.912,forced_choiceRT_color,2021.2.3,Win32,30.0120048,NA,NA,NA,NA,NA,NA,NA,10,Ontime,short,j,1,1.919,2,3,11,2,1,NA,NA,NA,NA,NA,1919,599.5,1,j,j,1,1,569,f,f,1,memory_color_short,-0.5,-0.5,0.5995,FALSE,FALSE,FALSE,FALSE
NA,0.12,NA,NA,NA,NA,NA,NA,NA,NA,f,blue,558812eefdf99b14f004b722,2021-09-27_16h11.00.912,forced_choiceRT_color,2021.2.3,Win32,30.0120048,NA,NA,NA,NA,NA,NA,NA,10,Ontime,short,f,1,2.018,3,0,12,1,1,NA,NA,NA,NA,NA,2017.9999999999998,948.9999999999999,1,f,f,1,1,599.5,j,j,1,memory_color_short,-0.5,-0.5,0.9489999999999998,FALSE,FALSE,FALSE,FALSE
NA,1.14,NA,NA,NA,NA,NA,NA,NA,NA,k,purple,558812eefdf99b14f004b722,2021-09-27_16h11.00.912,forced_choiceRT_color,2021.2.3,Win32,30.0120048,NA,NA,NA,NA,NA,NA,NA,10,Ontime,short,k,1,2.083,3,3,15,3,1,NA,NA,NA,NA,NA,2083,471.5000000000001,1,k,k,0,1,610.4999999999998,d,d,1,memory_color_short,0.5,-0.5,0.47150000000000014,FALSE,FALSE,FALSE,FALSE
NA,0.5,NA,NA,NA,NA,NA,NA,NA,NA,d,orange,558812eefdf99b14f004b722,2021-09-27_16h11.00.912,forced_choiceRT_color,2021.2.3,Win32,30.0120048,NA,NA,NA,NA,NA,NA,NA,10,Ontime,short,d,1,1.981,4,0,16,0,1,NA,NA,NA,NA,NA,1981,740.5,1,d,d,1,1,471.5000000000001,k,k,1,memory_color_short,-0.5,-0.5,0.7405,FALSE,FALSE,FALSE,FALSE
NA,0.18,NA,NA,NA,NA,NA,NA,NA,NA,k,purple,558812eefdf99b14f004b722,2021-09-27_16h11.00.912,forced_choiceRT_color,2021.2.3,Win32,30.0120048,NA,NA,NA,NA,NA,NA,NA,10,Ontime,short,k,1,1.973,4,1,17,3,1,NA,NA,NA,NA,NA,1973,896.5000000000001,1,k,k,1,1,740.5,d,d,1,memory_color_short,-0.5,-0.5,0.8965000000000001,FALSE,FALSE,FALSE,FALSE
NA,0.12,NA,NA,NA,NA,NA,NA,NA,NA,k,purple,558812eefdf99b14f004b722,2021-09-27_16h11.00.912,forced_choiceRT_color,2021.2.3,Win32,30.0120048,NA,NA,NA,NA,NA,NA,NA,10,Ontime,short,k,1,1.98,4,2,18,3,1,NA,NA,NA,NA,NA,1980,929.9999999999999,1,k,k,1,1,896.5000000000001,k,k,1,memory_color_short,-0.5,-0.5,0.9299999999999999,TRUE,TRUE,TRUE,FALSE
NA,0.93,NA,NA,NA,NA,NA,NA,NA,NA,j,red,558812eefdf99b14f004b722,2021-09-27_16h11.00.912,forced_choiceRT_color,2021.2.3,Win32,30.0120048,NA,NA,NA,NA,NA,NA,NA,10,Ontime,short,j,1,1.965,4,3,19,2,1,NA,NA,NA,NA,NA,1965,517.5000000000001,1,j,j,1,1,929.9999999999999,k,k,1,memory_color_short,-0.5,-0.5,0.5175000000000001,FALSE,FALSE,FALSE,FALSE
NA,0.93,NA,NA,NA,NA,NA,NA,NA,NA,k,purple,558812eefdf99b14f004b722,2021-09-27_16h11.00.912,forced_choiceRT_color,2021.2.3,Win32,30.0120048,NA,NA,NA,NA,NA,NA,NA,10,Ontime,short,k,1,1.942,5,0,20,3,1,NA,NA,NA,NA,NA,1942,506,1,k,k,1,1,517.5000000000001,j,j,1,memory_color_short,-0.5,-0.5,0.506,FALSE,FALSE,FALSE,FALSE
NA,1.08,NA,NA,NA,NA,NA,NA,NA,NA,j,red,558812eefdf99b14f004b722,2021-09-27_16h11.00.912,forced_choiceRT_color,2021.2.3,Win32,30.0120048,NA,NA,NA,NA,NA,NA,NA,10,Ontime,short,j,1,1.974,5,2,22,2,1,NA,NA,NA,NA,NA,1974,446.99999999999994,1,j,j,1,0,-58.99999999999994,k,f,1,memory_color_short,-0.5,0.5,0.44699999999999995,FALSE,FALSE,FALSE,TRUE
NA,1.61,NA,NA,NA,NA,NA,NA,NA,NA,d,orange,558812eefdf99b14f004b722,2021-09-27_16h11.00.912,forced_choiceRT_color,2021.2.3,Win32,30.0120048,NA,NA,NA,NA,NA,NA,NA,10,Ontime,short,j,0,2.068,6,0,24,0,1,NA,NA,NA,NA,NA,2068,228.99999999999997,0,j,d,1,0,172.5,j,k,0,memory_color_short,-0.5,0.5,0.22899999999999998,TRUE,FALSE,FALSE,FALSE
NA,1.83,NA,NA,NA,NA,NA,NA,NA,NA,d,orange,558812eefdf99b14f004b722,2021-09-27_16h11.00.912,forced_choiceRT_color,2021.2.3,Win32,30.0120048,NA,NA,NA,NA,NA,NA,NA,10,Ontime,short,j,0,1.969,6,1,25,0,1,NA,NA,NA,NA,NA,1969,69.5,0,j,d,0,0,228.99999999999997,j,d,0,memory_color_short,0.5,0.5,0.0695,TRUE,TRUE,FALSE,FALSE
NA,1.69,NA,NA,NA,NA,NA,NA,NA,NA,f,blue,558812eefdf99b14f004b722,2021-09-27_16h11.00.912,forced_choiceRT_color,2021.2.3,Win32,30.0120048,NA,NA,NA,NA,NA,NA,NA,10,Ontime,short,j,0,1.962,6,2,26,1,1,NA,NA,NA,NA,NA,1962,136,0,j,f,0,0,69.5,j,d,0,memory_color_short,0.5,0.5,0.136,TRUE,FALSE,FALSE,TRUE
NA,1.54,NA,NA,NA,NA,NA,NA,NA,NA,j,red,558812eefdf99b14f004b722,2021-09-27_16h11.00.912,forced_choiceRT_color,2021.2.3,Win32,30.0120048,NA,NA,NA,NA,NA,NA,NA,10,Ontime,short,k,0,1.921,6,3,27,2,1,NA,NA,NA,NA,NA,1921,190.5,0,k,j,0,0,136,j,f,0,memory_color_short,0.5,0.5,0.1905,FALSE,FALSE,TRUE,FALSE
NA,1.91,NA,NA,NA,NA,NA,NA,NA,NA,d,orange,558812eefdf99b14f004b722,2021-09-27_16h11.00.912,forced_choiceRT_color,2021.2.3,Win32,30.0120048,NA,NA,NA,NA,NA,NA,NA,10,Ontime,short,d,1,1.936,7,1,29,0,1,NA,NA,NA,NA,NA,1936,13.00000000000001,1,d,d,0,0,617,f,k,1,memory_color_short,0.5,0.5,0.01300000000000001,FALSE,FALSE,FALSE,FALSE
NA,1.18,NA,NA,NA,NA,NA,NA,NA,NA,d,orange,558812eefdf99b14f004b722,2021-09-27_16h11.00.912,forced_choiceRT_color,2021.2.3,Win32,30.0120048,NA,NA,NA,NA,NA,NA,NA,10,Ontime,short,d,1,1.984,7,2,30,0,1,NA,NA,NA,NA,NA,1984,402,1,d,d,0,1,13.00000000000001,d,d,1,memory_color_short,0.5,-0.5,0.402,TRUE,TRUE,TRUE,TRUE
NA,1.9,NA,NA,NA,NA,NA,NA,NA,NA,f,blue,558812eefdf99b14f004b722,2021-09-27_16h11.00.912,forced_choiceRT_color,2021.2.3,Win32,30.0120048,NA,NA,NA,NA,NA,NA,NA,10,Ontime,short,k,0,1.964,8,1,33,1,1,NA,NA,NA,NA,NA,1964,32.00000000000003,0,k,f,1,0,297.49999999999994,d,j,0,memory_color_short,-0.5,0.5,0.03200000000000003,FALSE,FALSE,FALSE,FALSE
NA,0.83,NA,NA,NA,NA,NA,NA,NA,NA,j,red,558812eefdf99b14f004b722,2021-09-27_16h11.00.912,forced_choiceRT_color,2021.2.3,Win32,30.0120048,NA,NA,NA,NA,NA,NA,NA,10,Ontime,short,f,0,2,8,2,34,2,1,NA,NA,NA,NA,NA,2000,585,0,f,j,0,0,32.00000000000003,k,f,0,memory_color_short,0.5,0.5,0.585,FALSE,FALSE,FALSE,TRUE
NA,1.38,NA,NA,NA,NA,NA,NA,NA,NA,j,red,558812eefdf99b14f004b722,2021-09-27_16h11.00.912,forced_choiceRT_color,2021.2.3,Win32,30.0120048,NA,NA,NA,NA,NA,NA,NA,10,Ontime,short,j,1,1.982,9,1,37,2,1,NA,NA,NA,NA,NA,1982,301.00000000000006,1,j,j,1,0,139.99999999999991,j,d,1,memory_color_short,-0.5,0.5,0.30100000000000005,TRUE,FALSE,TRUE,FALSE
NA,0.93,NA,NA,NA,NA,NA,NA,NA,NA,d,orange,558812eefdf99b14f004b722,2021-09-27_16h11.00.912,forced_choiceRT_color,2021.2.3,Win32,30.0120048,NA,NA,NA,NA,NA,NA,NA,10,Ontime,short,f,0,2.014,9,2,38,0,1,NA,NA,NA,NA,NA,2013.9999999999998,541.9999999999998,0,f,d,0,1,301.00000000000006,j,j,0,memory_color_short,0.5,-0.5,0.5419999999999998,FALSE,FALSE,FALSE,FALSE
NA,1.73,NA,NA,NA,NA,NA,NA,NA,NA,k,purple,558812eefdf99b14f004b722,2021-09-27_16h11.00.912,forced_choiceRT_color,2021.2.3,Win32,30.0120048,NA,NA,NA,NA,NA,NA,NA,10,Ontime,short,d,0,2.066,9,3,39,3,1,NA,NA,NA,NA,NA,2066,167.99999999999991,0,d,k,1,0,541.9999999999998,f,d,0,memory_color_short,-0.5,0.5,0.16799999999999993,FALSE,FALSE,FALSE,FALSE
NA,0.22,NA,NA,NA,NA,NA,NA,NA,NA,d,orange,582ee44408b46b00010dbb07,2021-10-22_14h02.39.969,forced_choiceRT_color,2021.2.3,Win32,143.9884809,NA,NA,NA,NA,NA,NA,NA,1,Ontime,short,d,1,2.0641,0,2,2,0,1,NA,NA,NA,NA,NA,2064.1,922.05,1,d,d,1,1,227.49999999999991,k,k,1,memory_color_short,-0.5,-0.5,0.9220499999999999,FALSE,FALSE,FALSE,FALSE
NA,0.83,NA,NA,NA,NA,NA,NA,NA,NA,k,purple,582ee44408b46b00010dbb07,2021-10-22_14h02.39.969,forced_choiceRT_color,2021.2.3,Win32,143.9884809,NA,NA,NA,NA,NA,NA,NA,1,Ontime,short,k,1,2.0395,0,3,3,3,1,NA,NA,NA,NA,NA,2039.4999999999998,604.7499999999999,1,k,k,1,1,922.05,d,d,1,memory_color_short,-0.5,-0.5,0.6047499999999999,FALSE,FALSE,FALSE,FALSE
NA,0.48,NA,NA,NA,NA,NA,NA,NA,NA,j,red,582ee44408b46b00010dbb07,2021-10-22_14h02.39.969,forced_choiceRT_color,2021.2.3,Win32,143.9884809,NA,NA,NA,NA,NA,NA,NA,1,Ontime,short,j,1,2.0003,1,0,4,2,1,NA,NA,NA,NA,NA,2000.3000000000002,760.1500000000001,1,j,j,1,1,604.7499999999999,k,k,1,memory_color_short,-0.5,-0.5,0.7601500000000001,FALSE,FALSE,FALSE,FALSE
NA,1.34,NA,NA,NA,NA,NA,NA,NA,NA,f,blue,582ee44408b46b00010dbb07,2021-10-22_14h02.39.969,forced_choiceRT_color,2021.2.3,Win32,143.9884809,NA,NA,NA,NA,NA,NA,NA,1,Ontime,short,f,1,2.0054,1,1,5,1,1,NA,NA,NA,NA,NA,2005.3999999999999,332.6999999999999,1,f,f,1,1,760.1500000000001,j,j,1,memory_color_short,-0.5,-0.5,0.3326999999999999,FALSE,FALSE,FALSE,FALSE
NA,1.23,NA,NA,NA,NA,NA,NA,NA,NA,k,purple,582ee44408b46b00010dbb07,2021-10-22_14h02.39.969,forced_choiceRT_color,2021.2.3,Win32,143.9884809,NA,NA,NA,NA,NA,NA,NA,1,Ontime,short,k,1,2.0154,1,2,6,3,1,NA,NA,NA,NA,NA,2015.4,392.70000000000005,1,k,k,1,1,332.6999999999999,f,f,1,memory_color_short,-0.5,-0.5,0.39270000000000005,FALSE,FALSE,FALSE,FALSE
NA,1.25,NA,NA,NA,NA,NA,NA,NA,NA,d,orange,582ee44408b46b00010dbb07,2021-10-22_14h02.39.969,forced_choiceRT_color,2021.2.3,Win32,143.9884809,NA,NA,NA,NA,NA,NA,NA,1,Ontime,short,d,1,2.0507,2,2,10,0,1,NA,NA,NA,NA,NA,2050.7,400.34999999999997,1,d,d,1,1,1001.3500000000001,k,k,1,memory_color_short,-0.5,-0.5,0.40035,FALSE,FALSE,FALSE,FALSE
NA,0.86,NA,NA,NA,NA,NA,NA,NA,NA,d,orange,582ee44408b46b00010dbb07,2021-10-22_14h02.39.969,forced_choiceRT_color,2021.2.3,Win32,143.9884809,NA,NA,NA,NA,NA,NA,NA,1,Ontime,short,d,1,2.0709,3,0,12,0,1,NA,NA,NA,NA,NA,2070.9,605.45,1,d,d,1,1,389.6000000000001,k,k,1,memory_color_short,-0.5,-0.5,0.60545,FALSE,FALSE,FALSE,FALSE
NA,0.74,NA,NA,NA,NA,NA,NA,NA,NA,d,orange,582ee44408b46b00010dbb07,2021-10-22_14h02.39.969,forced_choiceRT_color,2021.2.3,Win32,143.9884809,NA,NA,NA,NA,NA,NA,NA,1,Ontime,short,d,1,2.0263,4,0,16,0,1,NA,NA,NA,NA,NA,2026.3,643.15,1,d,d,0,0,105.10000000000008,k,j,1,memory_color_short,0.5,0.5,0.64315,FALSE,FALSE,FALSE,FALSE
