IP_Addresss,target_onset,trial_resp_sp.keys,trial_resp_sp.corr,trial_resp_sp.rt,trials_train_loop.thisRepN,trials_train_loop.thisTrialN,trials_train_loop.thisN,trials_train_loop.thisIndex,trials_train_loop.ran,correct_key,color,participant,date,expName,psychopyVersion,OS,frameRate,trial_resp_timing.keys,trial_resp_timing.rt,trials_train_timing.thisRepN,trials_train_timing.thisTrialN,trials_train_timing.thisN,trials_train_timing.thisIndex,trials_train_timing.ran,block_id,ontime,feedback_cond,forcedRT_resp.keys,forcedRT_resp.corr,forcedRT_resp.rt,trials.thisRepN,trials.thisTrialN,trials.thisN,trials.thisIndex,trials.ran,blocks.thisRepN,blocks.thisTrialN,blocks.thisN,blocks.thisIndex,blocks.ran,RT,PT,accuracy,key,stim,acc00,acc0,time0,key0,stim0,y,exp,err00,err0,time,key_rep,stim_rep,key_stim_rep,time_rep
NA,0.11,NA,NA,NA,NA,NA,NA,NA,NA,f,blue,55ae64defdf99b3f864653e7,2021-09-27_16h09.33.908,forced_choiceRT_color,2021.2.3,Win32,60.150375940000004,NA,NA,NA,NA,NA,NA,NA,1,Ontime,long,f,1,1.925,1,2,6,1,1,NA,NA,NA,NA,NA,1925,907.5,1,f,f,1,1,752,f,f,1,memory_color_long,-0.5,-0.5,0.9075,TRUE,TRUE,TRUE,FALSE
NA,1.32,NA,NA,NA,NA,NA,NA,NA,NA,d,orange,55ae64defdf99b3f864653e7,2021-09-27_16h09.33.908,forced_choiceRT_color,2021.2.3,Win32,60.150375940000004,NA,NA,NA,NA,NA,NA,NA,1,Ontime,long,j,0,2.0325,2,0,8,0,1,NA,NA,NA,NA,NA,2032.5000000000002,356.25000000000006,0,j,d,1,0,187.64999999999998,j,k,0,memory_color_long,-0.5,0.5,0.35625000000000007,TRUE,FALSE,FALSE,FALSE
NA,0.8,NA,NA,NA,NA,NA,NA,NA,NA,d,orange,55ae64defdf99b3f864653e7,2021-09-27_16h09.33.908,forced_choiceRT_color,2021.2.3,Win32,60.150375940000004,NA,NA,NA,NA,NA,NA,NA,1,Ontime,long,d,1,2.0363,3,1,13,0,1,NA,NA,NA,NA,NA,2036.3000000000002,618.1500000000001,1,d,d,1,1,307.40000000000003,d,d,1,memory_color_long,-0.5,-0.5,0.6181500000000001,TRUE,TRUE,TRUE,FALSE
NA,1.22,NA,NA,NA,NA,NA,NA,NA,NA,j,red,55ae64defdf99b3f864653e7,2021-09-27_16h09.33.908,forced_choiceRT_color,2021.2.3,Win32,60.150375940000004,NA,NA,NA,NA,NA,NA,NA,1,Ontime,long,f,0,2.0727,3,2,14,2,1,NA,NA,NA,NA,NA,2072.7000000000003,426.35000000000014,0,f,j,1,1,618.1500000000001,d,d,0,memory_color_long,-0.5,-0.5,0.4263500000000001,FALSE,FALSE,FALSE,FALSE
NA,1.07,NA,NA,NA,NA,NA,NA,NA,NA,d,orange,55ae64defdf99b3f864653e7,2021-09-27_16h09.33.908,forced_choiceRT_color,2021.2.3,Win32,60.150375940000004,NA,NA,NA,NA,NA,NA,NA,1,Ontime,long,d,1,2.056,4,1,17,0,1,NA,NA,NA,NA,NA,2056,493,1,d,d,1,0,299.5499999999999,j,f,1,memory_color_long,-0.5,0.5,0.493,FALSE,FALSE,FALSE,FALSE
NA,1.14,NA,NA,NA,NA,NA,NA,NA,NA,j,red,55ae64defdf99b3f864653e7,2021-09-27_16h09.33.908,forced_choiceRT_color,2021.2.3,Win32,60.150375940000004,NA,NA,NA,NA,NA,NA,NA,1,Ontime,long,j,1,2.0889,4,3,19,2,1,NA,NA,NA,NA,NA,2088.9,474.45000000000016,1,j,j,1,0,479.8000000000001,j,f,1,memory_color_long,-0.5,0.5,0.47445000000000015,TRUE,FALSE,TRUE,FALSE
NA,1.01,NA,NA,NA,NA,NA,NA,NA,NA,d,orange,55ae64defdf99b3f864653e7,2021-09-27_16h09.33.908,forced_choiceRT_color,2021.2.3,Win32,60.150375940000004,NA,NA,NA,NA,NA,NA,NA,1,Ontime,long,d,1,1.9642,6,0,24,0,1,NA,NA,NA,NA,NA,1964.2,477.09999999999997,1,d,d,0,1,810.1,d,d,1,memory_color_long,0.5,-0.5,0.47709999999999997,TRUE,TRUE,TRUE,FALSE
NA,1.45,NA,NA,NA,NA,NA,NA,NA,NA,k,purple,55ae64defdf99b3f864653e7,2021-09-27_16h09.33.908,forced_choiceRT_color,2021.2.3,Win32,60.150375940000004,NA,NA,NA,NA,NA,NA,NA,1,Ontime,long,k,1,2.0957,6,1,25,3,1,NA,NA,NA,NA,NA,2095.7,322.84999999999997,1,k,k,1,1,477.09999999999997,d,d,1,memory_color_long,-0.5,-0.5,0.32284999999999997,FALSE,FALSE,FALSE,FALSE
NA,1.27,NA,NA,NA,NA,NA,NA,NA,NA,j,red,55ae64defdf99b3f864653e7,2021-09-27_16h09.33.908,forced_choiceRT_color,2021.2.3,Win32,60.150375940000004,NA,NA,NA,NA,NA,NA,NA,1,Ontime,long,d,0,2.0041,6,2,26,2,1,NA,NA,NA,NA,NA,2004.1000000000001,367.0500000000001,0,d,j,1,1,322.84999999999997,k,k,0,memory_color_long,-0.5,-0.5,0.3670500000000001,FALSE,FALSE,FALSE,FALSE
NA,0.91,NA,NA,NA,NA,NA,NA,NA,NA,d,orange,55ae64defdf99b3f864653e7,2021-09-27_16h09.33.908,forced_choiceRT_color,2021.2.3,Win32,60.150375940000004,NA,NA,NA,NA,NA,NA,NA,1,Ontime,long,d,1,2.0137,7,0,28,0,1,NA,NA,NA,NA,NA,2013.7,551.8499999999999,1,d,d,0,0,295.54999999999995,f,j,1,memory_color_long,0.5,0.5,0.55185,FALSE,FALSE,FALSE,FALSE
NA,0.78,NA,NA,NA,NA,NA,NA,NA,NA,j,red,55ae64defdf99b3f864653e7,2021-09-27_16h09.33.908,forced_choiceRT_color,2021.2.3,Win32,60.150375940000004,NA,NA,NA,NA,NA,NA,NA,1,Ontime,long,j,1,1.9682,8,2,34,2,1,NA,NA,NA,NA,NA,1968.2,594.0999999999999,1,j,j,1,1,261.4000000000001,j,j,1,memory_color_long,-0.5,-0.5,0.5941,TRUE,TRUE,TRUE,FALSE
NA,1.22,NA,NA,NA,NA,NA,NA,NA,NA,f,blue,55ae64defdf99b3f864653e7,2021-09-27_16h09.33.908,forced_choiceRT_color,2021.2.3,Win32,60.150375940000004,NA,NA,NA,NA,NA,NA,NA,1,Ontime,long,f,1,1.9812,9,0,36,1,1,NA,NA,NA,NA,NA,1981.2,380.6,1,f,f,1,1,350.6,k,k,1,memory_color_long,-0.5,-0.5,0.38060000000000005,FALSE,FALSE,FALSE,FALSE
NA,1.36,NA,NA,NA,NA,NA,NA,NA,NA,j,red,55ae64defdf99b3f864653e7,2021-09-27_16h09.33.908,forced_choiceRT_color,2021.2.3,Win32,60.150375940000004,NA,NA,NA,NA,NA,NA,NA,1,Ontime,long,j,1,2.0801,9,1,37,2,1,NA,NA,NA,NA,NA,2080.1,360.0499999999999,1,j,j,1,1,380.6,f,f,1,memory_color_long,-0.5,-0.5,0.36004999999999987,FALSE,FALSE,FALSE,FALSE
NA,0.66,NA,NA,NA,NA,NA,NA,NA,NA,j,red,55ae64defdf99b3f864653e7,2021-09-27_16h09.33.908,forced_choiceRT_color,2021.2.3,Win32,60.150375940000004,NA,NA,NA,NA,NA,NA,NA,2,Ontime,long,j,1,2.0226,0,0,0,2,1,NA,NA,NA,NA,NA,2022.6000000000001,681.3000000000001,1,j,j,1,1,271.39999999999986,k,k,1,memory_color_long,-0.5,-0.5,0.6813,FALSE,FALSE,FALSE,FALSE
NA,0.26,NA,NA,NA,NA,NA,NA,NA,NA,d,orange,55ae64defdf99b3f864653e7,2021-09-27_16h09.33.908,forced_choiceRT_color,2021.2.3,Win32,60.150375940000004,NA,NA,NA,NA,NA,NA,NA,2,Ontime,long,d,1,1.9728,0,2,2,0,1,NA,NA,NA,NA,NA,1972.8000000000002,856.4000000000001,1,d,d,1,1,632.35,j,j,1,memory_color_long,-0.5,-0.5,0.8564,FALSE,FALSE,FALSE,FALSE
NA,1.08,NA,NA,NA,NA,NA,NA,NA,NA,j,red,55ae64defdf99b3f864653e7,2021-09-27_16h09.33.908,forced_choiceRT_color,2021.2.3,Win32,60.150375940000004,NA,NA,NA,NA,NA,NA,NA,2,Ontime,long,j,1,2.0663,0,3,3,2,1,NA,NA,NA,NA,NA,2066.3,493.15,1,j,j,1,1,856.4000000000001,d,d,1,memory_color_long,-0.5,-0.5,0.49315,FALSE,FALSE,FALSE,FALSE
NA,1.35,NA,NA,NA,NA,NA,NA,NA,NA,f,blue,55ae64defdf99b3f864653e7,2021-09-27_16h09.33.908,forced_choiceRT_color,2021.2.3,Win32,60.150375940000004,NA,NA,NA,NA,NA,NA,NA,2,Ontime,long,f,1,2.0428,1,0,4,1,1,NA,NA,NA,NA,NA,2042.8000000000002,346.40000000000003,1,f,f,1,1,493.15,j,j,1,memory_color_long,-0.5,-0.5,0.34640000000000004,FALSE,FALSE,FALSE,FALSE
NA,0.57,NA,NA,NA,NA,NA,NA,NA,NA,j,red,55ae64defdf99b3f864653e7,2021-09-27_16h09.33.908,forced_choiceRT_color,2021.2.3,Win32,60.150375940000004,NA,NA,NA,NA,NA,NA,NA,2,Ontime,long,j,1,2.0049,1,2,6,2,1,NA,NA,NA,NA,NA,2004.9,717.4500000000002,1,j,j,1,1,682.8,f,f,1,memory_color_long,-0.5,-0.5,0.7174500000000001,FALSE,FALSE,FALSE,FALSE
NA,0.34,NA,NA,NA,NA,NA,NA,NA,NA,d,orange,55ae64defdf99b3f864653e7,2021-09-27_16h09.33.908,forced_choiceRT_color,2021.2.3,Win32,60.150375940000004,NA,NA,NA,NA,NA,NA,NA,2,Ontime,long,d,1,2.0206,2,1,9,0,1,NA,NA,NA,NA,NA,2020.6,840.3,1,d,d,1,0,192.09999999999994,j,d,1,memory_color_long,-0.5,0.5,0.8402999999999999,FALSE,TRUE,FALSE,FALSE
NA,1.89,NA,NA,NA,NA,NA,NA,NA,NA,f,blue,55ae64defdf99b3f864653e7,2021-09-27_16h09.33.908,forced_choiceRT_color,2021.2.3,Win32,60.150375940000004,NA,NA,NA,NA,NA,NA,NA,2,Ontime,long,j,0,2.0684,2,2,10,1,1,NA,NA,NA,NA,NA,2068.4,89.20000000000006,0,j,f,0,1,840.3,d,d,0,memory_color_long,0.5,-0.5,0.08920000000000006,FALSE,FALSE,FALSE,FALSE
NA,1.19,NA,NA,NA,NA,NA,NA,NA,NA,j,red,55ae64defdf99b3f864653e7,2021-09-27_16h09.33.908,forced_choiceRT_color,2021.2.3,Win32,60.150375940000004,NA,NA,NA,NA,NA,NA,NA,2,Ontime,long,j,1,1.9187,3,0,12,2,1,NA,NA,NA,NA,NA,1918.7,364.3500000000001,1,j,j,0,1,387.1,k,k,1,memory_color_long,0.5,-0.5,0.36435000000000006,FALSE,FALSE,FALSE,FALSE
NA,1.18,NA,NA,NA,NA,NA,NA,NA,NA,d,orange,55ae64defdf99b3f864653e7,2021-09-27_16h09.33.908,forced_choiceRT_color,2021.2.3,Win32,60.150375940000004,NA,NA,NA,NA,NA,NA,NA,2,Ontime,long,d,1,2.0476,3,1,13,0,1,NA,NA,NA,NA,NA,2047.6000000000001,433.80000000000007,1,d,d,1,1,364.3500000000001,j,j,1,memory_color_long,-0.5,-0.5,0.4338000000000001,FALSE,FALSE,FALSE,FALSE
NA,0.75,NA,NA,NA,NA,NA,NA,NA,NA,d,orange,55ae64defdf99b3f864653e7,2021-09-27_16h09.33.908,forced_choiceRT_color,2021.2.3,Win32,60.150375940000004,NA,NA,NA,NA,NA,NA,NA,2,Ontime,long,d,1,1.9301,5,0,20,0,1,NA,NA,NA,NA,NA,1930.1,590.05,1,d,d,1,1,241.50000000000006,j,j,1,memory_color_long,-0.5,-0.5,0.59005,FALSE,FALSE,FALSE,FALSE
NA,0.16,NA,NA,NA,NA,NA,NA,NA,NA,f,blue,55ae64defdf99b3f864653e7,2021-09-27_16h09.33.908,forced_choiceRT_color,2021.2.3,Win32,60.150375940000004,NA,NA,NA,NA,NA,NA,NA,2,Ontime,long,f,1,2,7,1,29,1,1,NA,NA,NA,NA,NA,2000,920,1,f,f,1,1,433.94999999999993,d,d,1,memory_color_long,-0.5,-0.5,0.92,FALSE,FALSE,FALSE,FALSE
NA,0.48,NA,NA,NA,NA,NA,NA,NA,NA,d,orange,55ae64defdf99b3f864653e7,2021-09-27_16h09.33.908,forced_choiceRT_color,2021.2.3,Win32,60.150375940000004,NA,NA,NA,NA,NA,NA,NA,2,Ontime,long,d,1,1.9758,7,3,31,0,1,NA,NA,NA,NA,NA,1975.8,747.9,1,d,d,1,1,235.29999999999995,k,k,1,memory_color_long,-0.5,-0.5,0.7479,FALSE,FALSE,FALSE,FALSE
NA,0.6,NA,NA,NA,NA,NA,NA,NA,NA,k,purple,55ae64defdf99b3f864653e7,2021-09-27_16h09.33.908,forced_choiceRT_color,2021.2.3,Win32,60.150375940000004,NA,NA,NA,NA,NA,NA,NA,2,Ontime,long,k,1,2.0324,8,0,32,3,1,NA,NA,NA,NA,NA,2032.4,716.1999999999999,1,k,k,1,1,747.9,d,d,1,memory_color_long,-0.5,-0.5,0.7162,FALSE,FALSE,FALSE,FALSE
NA,1.2,NA,NA,NA,NA,NA,NA,NA,NA,f,blue,55ae64defdf99b3f864653e7,2021-09-27_16h09.33.908,forced_choiceRT_color,2021.2.3,Win32,60.150375940000004,NA,NA,NA,NA,NA,NA,NA,2,Ontime,long,f,1,1.9111,8,2,34,1,1,NA,NA,NA,NA,NA,1911.1,355.55,1,f,f,1,1,210.35000000000002,f,f,1,memory_color_long,-0.5,-0.5,0.35555000000000003,TRUE,TRUE,TRUE,FALSE
NA,1.51,NA,NA,NA,NA,NA,NA,NA,NA,k,purple,55ae64defdf99b3f864653e7,2021-09-27_16h09.33.908,forced_choiceRT_color,2021.2.3,Win32,60.150375940000004,NA,NA,NA,NA,NA,NA,NA,2,Ontime,long,j,0,2.0502,9,0,36,3,1,NA,NA,NA,NA,NA,2050.2,270.0999999999999,0,j,k,1,0,232.39999999999995,d,f,0,memory_color_long,-0.5,0.5,0.2700999999999999,FALSE,FALSE,FALSE,FALSE
NA,0.74,NA,NA,NA,NA,NA,NA,NA,NA,d,orange,55ae64defdf99b3f864653e7,2021-09-27_16h09.33.908,forced_choiceRT_color,2021.2.3,Win32,60.150375940000004,NA,NA,NA,NA,NA,NA,NA,3,Ontime,long,d,1,1.9153,0,1,1,0,1,NA,NA,NA,NA,NA,1915.3,587.65,1,d,d,0,0,546.2,f,j,1,memory_color_long,0.5,0.5,0.58765,FALSE,FALSE,FALSE,FALSE
NA,1.53,NA,NA,NA,NA,NA,NA,NA,NA,j,red,55ae64defdf99b3f864653e7,2021-09-27_16h09.33.908,forced_choiceRT_color,2021.2.3,Win32,60.150375940000004,NA,NA,NA,NA,NA,NA,NA,3,Ontime,long,j,1,2.0057,0,2,2,2,1,NA,NA,NA,NA,NA,2005.7,237.85,1,j,j,0,1,587.65,d,d,1,memory_color_long,0.5,-0.5,0.23785,FALSE,FALSE,FALSE,FALSE
NA,1.02,NA,NA,NA,NA,NA,NA,NA,NA,k,purple,55ae64defdf99b3f864653e7,2021-09-27_16h09.33.908,forced_choiceRT_color,2021.2.3,Win32,60.150375940000004,NA,NA,NA,NA,NA,NA,NA,3,Ontime,long,k,1,1.9852,0,3,3,3,1,NA,NA,NA,NA,NA,1985.2,482.6,1,k,k,1,1,237.85,j,j,1,memory_color_long,-0.5,-0.5,0.48260000000000003,FALSE,FALSE,FALSE,FALSE
NA,1.35,NA,NA,NA,NA,NA,NA,NA,NA,j,red,55ae64defdf99b3f864653e7,2021-09-27_16h09.33.908,forced_choiceRT_color,2021.2.3,Win32,60.150375940000004,NA,NA,NA,NA,NA,NA,NA,3,Ontime,long,j,1,2.0297,1,0,4,2,1,NA,NA,NA,NA,NA,2029.7,339.84999999999997,1,j,j,1,1,482.6,k,k,1,memory_color_long,-0.5,-0.5,0.33985,FALSE,FALSE,FALSE,FALSE
NA,0.61,NA,NA,NA,NA,NA,NA,NA,NA,f,blue,55ae64defdf99b3f864653e7,2021-09-27_16h09.33.908,forced_choiceRT_color,2021.2.3,Win32,60.150375940000004,NA,NA,NA,NA,NA,NA,NA,3,Ontime,long,f,1,2.0452,1,1,5,1,1,NA,NA,NA,NA,NA,2045.1999999999998,717.6,1,f,f,1,1,339.84999999999997,j,j,1,memory_color_long,-0.5,-0.5,0.7176,FALSE,FALSE,FALSE,FALSE
NA,1.55,NA,NA,NA,NA,NA,NA,NA,NA,j,red,55ae64defdf99b3f864653e7,2021-09-27_16h09.33.908,forced_choiceRT_color,2021.2.3,Win32,60.150375940000004,NA,NA,NA,NA,NA,NA,NA,3,Ontime,long,j,1,1.9427,3,0,12,2,1,NA,NA,NA,NA,NA,1942.7,196.35000000000002,1,j,j,1,1,261.6000000000001,f,f,1,memory_color_long,-0.5,-0.5,0.19635000000000002,FALSE,FALSE,FALSE,FALSE
NA,1.57,NA,NA,NA,NA,NA,NA,NA,NA,j,red,55ae64defdf99b3f864653e7,2021-09-27_16h09.33.908,forced_choiceRT_color,2021.2.3,Win32,60.150375940000004,NA,NA,NA,NA,NA,NA,NA,3,Ontime,long,j,1,2.0647,3,1,13,2,1,NA,NA,NA,NA,NA,2064.7000000000003,247.35000000000008,1,j,j,1,1,196.35000000000002,j,j,1,memory_color_long,-0.5,-0.5,0.24735000000000007,TRUE,TRUE,TRUE,FALSE
NA,0.47,NA,NA,NA,NA,NA,NA,NA,NA,d,orange,55ae64defdf99b3f864653e7,2021-09-27_16h09.33.908,forced_choiceRT_color,2021.2.3,Win32,60.150375940000004,NA,NA,NA,NA,NA,NA,NA,3,Ontime,long,d,1,1.9422,4,2,18,0,1,NA,NA,NA,NA,NA,1942.1999999999998,736.1,1,d,d,1,1,680.8,k,k,1,memory_color_long,-0.5,-0.5,0.7361,FALSE,FALSE,FALSE,FALSE
NA,0.12,NA,NA,NA,NA,NA,NA,NA,NA,d,orange,55ae64defdf99b3f864653e7,2021-09-27_16h09.33.908,forced_choiceRT_color,2021.2.3,Win32,60.150375940000004,NA,NA,NA,NA,NA,NA,NA,3,Ontime,long,d,1,1.907,4,3,19,0,1,NA,NA,NA,NA,NA,1907,893.5,1,d,d,1,1,736.1,d,d,1,memory_color_long,-0.5,-0.5,0.8935,TRUE,TRUE,TRUE,FALSE
NA,0.69,NA,NA,NA,NA,NA,NA,NA,NA,f,blue,55ae64defdf99b3f864653e7,2021-09-27_16h09.33.908,forced_choiceRT_color,2021.2.3,Win32,60.150375940000004,NA,NA,NA,NA,NA,NA,NA,3,Ontime,long,f,1,1.9422,5,0,20,1,1,NA,NA,NA,NA,NA,1942.1999999999998,626.1,1,f,f,1,1,893.5,d,d,1,memory_color_long,-0.5,-0.5,0.6261,FALSE,FALSE,FALSE,FALSE
NA,0.6,NA,NA,NA,NA,NA,NA,NA,NA,d,orange,55ae64defdf99b3f864653e7,2021-09-27_16h09.33.908,forced_choiceRT_color,2021.2.3,Win32,60.150375940000004,NA,NA,NA,NA,NA,NA,NA,3,Ontime,long,d,1,1.9551,5,1,21,0,1,NA,NA,NA,NA,NA,1955.1000000000001,677.5500000000001,1,d,d,1,1,626.1,f,f,1,memory_color_long,-0.5,-0.5,0.6775500000000001,FALSE,FALSE,FALSE,FALSE
NA,0.6,NA,NA,NA,NA,NA,NA,NA,NA,f,blue,55ae64defdf99b3f864653e7,2021-09-27_16h09.33.908,forced_choiceRT_color,2021.2.3,Win32,60.150375940000004,NA,NA,NA,NA,NA,NA,NA,3,Ontime,long,j,0,1.9482,5,2,22,1,1,NA,NA,NA,NA,NA,1948.1999999999998,674.0999999999999,0,j,f,1,1,677.5500000000001,d,d,0,memory_color_long,-0.5,-0.5,0.6740999999999999,FALSE,FALSE,FALSE,FALSE
NA,0.51,NA,NA,NA,NA,NA,NA,NA,NA,k,purple,55ae64defdf99b3f864653e7,2021-09-27_16h09.33.908,forced_choiceRT_color,2021.2.3,Win32,60.150375940000004,NA,NA,NA,NA,NA,NA,NA,3,Ontime,long,k,1,1.9648,6,0,24,3,1,NA,NA,NA,NA,NA,1964.8000000000002,727.4000000000001,1,k,k,0,1,489.24999999999994,k,k,1,memory_color_long,0.5,-0.5,0.7274,TRUE,TRUE,TRUE,FALSE
NA,1.39,NA,NA,NA,NA,NA,NA,NA,NA,k,purple,55ae64defdf99b3f864653e7,2021-09-27_16h09.33.908,forced_choiceRT_color,2021.2.3,Win32,60.150375940000004,NA,NA,NA,NA,NA,NA,NA,3,Ontime,long,k,1,1.9502,6,1,25,3,1,NA,NA,NA,NA,NA,1950.2,280.1,1,k,k,1,1,727.4000000000001,k,k,1,memory_color_long,-0.5,-0.5,0.2801,TRUE,TRUE,TRUE,FALSE
NA,1.42,NA,NA,NA,NA,NA,NA,NA,NA,f,blue,55ae64defdf99b3f864653e7,2021-09-27_16h09.33.908,forced_choiceRT_color,2021.2.3,Win32,60.150375940000004,NA,NA,NA,NA,NA,NA,NA,3,Ontime,long,j,0,1.9803,7,1,29,1,1,NA,NA,NA,NA,NA,1980.3,280.15000000000003,0,j,f,0,1,566.8499999999999,k,k,0,memory_color_long,0.5,-0.5,0.28015,FALSE,FALSE,FALSE,FALSE
NA,0.35,NA,NA,NA,NA,NA,NA,NA,NA,j,red,55ae64defdf99b3f864653e7,2021-09-27_16h09.33.908,forced_choiceRT_color,2021.2.3,Win32,60.150375940000004,NA,NA,NA,NA,NA,NA,NA,3,Ontime,long,f,0,1.9991,7,2,30,2,1,NA,NA,NA,NA,NA,1999.1000000000001,824.5500000000001,0,f,j,1,0,280.15000000000003,j,f,0,memory_color_long,-0.5,0.5,0.8245500000000001,FALSE,FALSE,TRUE,FALSE
NA,0.65,NA,NA,NA,NA,NA,NA,NA,NA,k,purple,55ae64defdf99b3f864653e7,2021-09-27_16h09.33.908,forced_choiceRT_color,2021.2.3,Win32,60.150375940000004,NA,NA,NA,NA,NA,NA,NA,3,Ontime,long,k,1,1.9762,7,3,31,3,1,NA,NA,NA,NA,NA,1976.2,663.1,1,k,k,0,0,824.5500000000001,f,j,1,memory_color_long,0.5,0.5,0.6631,FALSE,FALSE,FALSE,FALSE
NA,1.27,NA,NA,NA,NA,NA,NA,NA,NA,j,red,55ae64defdf99b3f864653e7,2021-09-27_16h09.33.908,forced_choiceRT_color,2021.2.3,Win32,60.150375940000004,NA,NA,NA,NA,NA,NA,NA,3,Ontime,long,j,1,2.0028,9,3,39,2,1,NA,NA,NA,NA,NA,2002.8000000000002,366.40000000000003,1,j,j,0,1,778.8000000000001,f,f,1,memory_color_long,0.5,-0.5,0.36640000000000006,FALSE,FALSE,FALSE,FALSE
NA,0.01,NA,NA,NA,NA,NA,NA,NA,NA,d,orange,55ae64defdf99b3f864653e7,2021-09-27_16h09.33.908,forced_choiceRT_color,2021.2.3,Win32,60.150375940000004,NA,NA,NA,NA,NA,NA,NA,4,Ontime,long,d,1,1.9672,0,0,0,0,1,NA,NA,NA,NA,NA,1967.2,978.6,1,d,d,1,1,366.40000000000003,j,j,1,memory_color_long,-0.5,-0.5,0.9786,FALSE,FALSE,FALSE,FALSE
NA,1.39,NA,NA,NA,NA,NA,NA,NA,NA,d,orange,55ae64defdf99b3f864653e7,2021-09-27_16h09.33.908,forced_choiceRT_color,2021.2.3,Win32,60.150375940000004,NA,NA,NA,NA,NA,NA,NA,4,Ontime,long,k,0,2.069,0,2,2,0,1,NA,NA,NA,NA,NA,2069,339.5,0,k,d,1,1,685.0500000000001,f,f,0,memory_color_long,-0.5,-0.5,0.3395,FALSE,FALSE,FALSE,FALSE
NA,1.14,NA,NA,NA,NA,NA,NA,NA,NA,k,purple,55ae64defdf99b3f864653e7,2021-09-27_16h09.33.908,forced_choiceRT_color,2021.2.3,Win32,60.150375940000004,NA,NA,NA,NA,NA,NA,NA,4,Ontime,long,k,1,1.9415,0,3,3,3,1,NA,NA,NA,NA,NA,1941.5,400.75000000000006,1,k,k,1,0,339.5,k,d,1,memory_color_long,-0.5,0.5,0.40075000000000005,TRUE,FALSE,TRUE,FALSE
NA,0.77,NA,NA,NA,NA,NA,NA,NA,NA,f,blue,55ae64defdf99b3f864653e7,2021-09-27_16h09.33.908,forced_choiceRT_color,2021.2.3,Win32,60.150375940000004,NA,NA,NA,NA,NA,NA,NA,4,Ontime,long,f,1,1.9482,1,0,4,1,1,NA,NA,NA,NA,NA,1948.1999999999998,589.0999999999999,1,f,f,0,1,400.75000000000006,k,k,1,memory_color_long,0.5,-0.5,0.5891,FALSE,FALSE,FALSE,FALSE
NA,1.05,NA,NA,NA,NA,NA,NA,NA,NA,j,red,55ae64defdf99b3f864653e7,2021-09-27_16h09.33.908,forced_choiceRT_color,2021.2.3,Win32,60.150375940000004,NA,NA,NA,NA,NA,NA,NA,4,Ontime,long,j,1,1.9105,2,0,8,2,1,NA,NA,NA,NA,NA,1910.5,430.25,1,j,j,1,1,277.15000000000003,j,j,1,memory_color_long,-0.5,-0.5,0.43025,TRUE,TRUE,TRUE,FALSE
NA,0.55,NA,NA,NA,NA,NA,NA,NA,NA,d,orange,55ae64defdf99b3f864653e7,2021-09-27_16h09.33.908,forced_choiceRT_color,2021.2.3,Win32,60.150375940000004,NA,NA,NA,NA,NA,NA,NA,4,Ontime,long,d,1,1.9002,2,1,9,0,1,NA,NA,NA,NA,NA,1900.1999999999998,675.0999999999999,1,d,d,1,1,430.25,j,j,1,memory_color_long,-0.5,-0.5,0.6750999999999999,FALSE,FALSE,FALSE,FALSE
NA,0.81,NA,NA,NA,NA,NA,NA,NA,NA,j,red,55ae64defdf99b3f864653e7,2021-09-27_16h09.33.908,forced_choiceRT_color,2021.2.3,Win32,60.150375940000004,NA,NA,NA,NA,NA,NA,NA,4,Ontime,long,j,1,1.914,2,2,10,2,1,NA,NA,NA,NA,NA,1914,551.9999999999999,1,j,j,1,1,675.0999999999999,d,d,1,memory_color_long,-0.5,-0.5,0.5519999999999999,FALSE,FALSE,FALSE,FALSE
NA,0.59,NA,NA,NA,NA,NA,NA,NA,NA,d,orange,55ae64defdf99b3f864653e7,2021-09-27_16h09.33.908,forced_choiceRT_color,2021.2.3,Win32,60.150375940000004,NA,NA,NA,NA,NA,NA,NA,4,Ontime,long,d,1,1.9473,2,3,11,0,1,NA,NA,NA,NA,NA,1947.3,678.65,1,d,d,1,1,551.9999999999999,j,j,1,memory_color_long,-0.5,-0.5,0.67865,FALSE,FALSE,FALSE,FALSE
NA,0.29,NA,NA,NA,NA,NA,NA,NA,NA,j,red,55ae64defdf99b3f864653e7,2021-09-27_16h09.33.908,forced_choiceRT_color,2021.2.3,Win32,60.150375940000004,NA,NA,NA,NA,NA,NA,NA,4,Ontime,long,j,1,1.9507,3,3,15,2,1,NA,NA,NA,NA,NA,1950.7,830.35,1,j,j,1,1,886.25,d,d,1,memory_color_long,-0.5,-0.5,0.83035,FALSE,FALSE,FALSE,FALSE
NA,0.8,NA,NA,NA,NA,NA,NA,NA,NA,f,blue,55ae64defdf99b3f864653e7,2021-09-27_16h09.33.908,forced_choiceRT_color,2021.2.3,Win32,60.150375940000004,NA,NA,NA,NA,NA,NA,NA,4,Ontime,long,f,1,1.918,4,0,16,1,1,NA,NA,NA,NA,NA,1918,558.9999999999999,1,f,f,1,1,830.35,j,j,1,memory_color_long,-0.5,-0.5,0.5589999999999999,FALSE,FALSE,FALSE,FALSE
NA,1.05,NA,NA,NA,NA,NA,NA,NA,NA,f,blue,55ae64defdf99b3f864653e7,2021-09-27_16h09.33.908,forced_choiceRT_color,2021.2.3,Win32,60.150375940000004,NA,NA,NA,NA,NA,NA,NA,4,Ontime,long,f,1,1.9985,4,1,17,1,1,NA,NA,NA,NA,NA,1998.5,474.24999999999994,1,f,f,1,1,558.9999999999999,f,f,1,memory_color_long,-0.5,-0.5,0.47424999999999995,TRUE,TRUE,TRUE,FALSE
NA,1.38,NA,NA,NA,NA,NA,NA,NA,NA,d,orange,55ae64defdf99b3f864653e7,2021-09-27_16h09.33.908,forced_choiceRT_color,2021.2.3,Win32,60.150375940000004,NA,NA,NA,NA,NA,NA,NA,4,Ontime,long,d,1,2.0588,4,3,19,0,1,NA,NA,NA,NA,NA,2058.8,339.40000000000015,1,d,d,1,1,257.70000000000005,d,d,1,memory_color_long,-0.5,-0.5,0.33940000000000015,TRUE,TRUE,TRUE,FALSE
NA,1.01,NA,NA,NA,NA,NA,NA,NA,NA,j,red,55ae64defdf99b3f864653e7,2021-09-27_16h09.33.908,forced_choiceRT_color,2021.2.3,Win32,60.150375940000004,NA,NA,NA,NA,NA,NA,NA,4,Ontime,long,j,1,1.9446,5,1,21,2,1,NA,NA,NA,NA,NA,1944.6000000000001,467.30000000000007,1,j,j,1,1,663.25,k,k,1,memory_color_long,-0.5,-0.5,0.46730000000000005,FALSE,FALSE,FALSE,FALSE
NA,1.11,NA,NA,NA,NA,NA,NA,NA,NA,d,orange,55ae64defdf99b3f864653e7,2021-09-27_16h09.33.908,forced_choiceRT_color,2021.2.3,Win32,60.150375940000004,NA,NA,NA,NA,NA,NA,NA,4,Ontime,long,d,1,1.92,6,0,24,0,1,NA,NA,NA,NA,NA,1920,404.99999999999994,1,d,d,1,1,436.5,f,f,1,memory_color_long,-0.5,-0.5,0.4049999999999999,FALSE,FALSE,FALSE,FALSE
NA,0.93,NA,NA,NA,NA,NA,NA,NA,NA,d,orange,55ae64defdf99b3f864653e7,2021-09-27_16h09.33.908,forced_choiceRT_color,2021.2.3,Win32,60.150375940000004,NA,NA,NA,NA,NA,NA,NA,4,Ontime,long,d,1,2.0063,6,2,26,0,1,NA,NA,NA,NA,NA,2006.3,538.1499999999999,1,d,d,1,1,262.7999999999999,k,k,1,memory_color_long,-0.5,-0.5,0.5381499999999999,FALSE,FALSE,FALSE,FALSE
NA,0.64,NA,NA,NA,NA,NA,NA,NA,NA,k,purple,55ae64defdf99b3f864653e7,2021-09-27_16h09.33.908,forced_choiceRT_color,2021.2.3,Win32,60.150375940000004,NA,NA,NA,NA,NA,NA,NA,4,Ontime,long,k,1,1.9271,6,3,27,3,1,NA,NA,NA,NA,NA,1927.1000000000001,643.5500000000001,1,k,k,1,1,538.1499999999999,d,d,1,memory_color_long,-0.5,-0.5,0.6435500000000001,FALSE,FALSE,FALSE,FALSE
NA,0.66,NA,NA,NA,NA,NA,NA,NA,NA,k,purple,55ae64defdf99b3f864653e7,2021-09-27_16h09.33.908,forced_choiceRT_color,2021.2.3,Win32,60.150375940000004,NA,NA,NA,NA,NA,NA,NA,4,Ontime,long,k,1,1.9731,7,0,28,3,1,NA,NA,NA,NA,NA,1973.1000000000001,656.55,1,k,k,1,1,643.5500000000001,k,k,1,memory_color_long,-0.5,-0.5,0.65655,TRUE,TRUE,TRUE,FALSE
NA,0.78,NA,NA,NA,NA,NA,NA,NA,NA,f,blue,55ae64defdf99b3f864653e7,2021-09-27_16h09.33.908,forced_choiceRT_color,2021.2.3,Win32,60.150375940000004,NA,NA,NA,NA,NA,NA,NA,4,Ontime,long,f,1,1.9496,7,3,31,1,1,NA,NA,NA,NA,NA,1949.6,584.8,1,f,f,1,0,390.2000000000001,j,f,1,memory_color_long,-0.5,0.5,0.5848,FALSE,TRUE,FALSE,FALSE
NA,1.5,NA,NA,NA,NA,NA,NA,NA,NA,k,purple,55ae64defdf99b3f864653e7,2021-09-27_16h09.33.908,forced_choiceRT_color,2021.2.3,Win32,60.150375940000004,NA,NA,NA,NA,NA,NA,NA,4,Ontime,long,k,1,2.0327,8,0,32,3,1,NA,NA,NA,NA,NA,2032.7000000000003,266.3500000000001,1,k,k,0,1,584.8,f,f,1,memory_color_long,0.5,-0.5,0.2663500000000001,FALSE,FALSE,FALSE,FALSE
NA,0.17,NA,NA,NA,NA,NA,NA,NA,NA,j,red,55ae64defdf99b3f864653e7,2021-09-27_16h09.33.908,forced_choiceRT_color,2021.2.3,Win32,60.150375940000004,NA,NA,NA,NA,NA,NA,NA,4,Ontime,long,j,1,1.9993,8,3,35,2,1,NA,NA,NA,NA,NA,1999.3000000000002,914.6500000000001,1,j,j,1,1,553.5,j,j,1,memory_color_long,-0.5,-0.5,0.9146500000000001,TRUE,TRUE,TRUE,FALSE
NA,0.94,NA,NA,NA,NA,NA,NA,NA,NA,j,red,55ae64defdf99b3f864653e7,2021-09-27_16h09.33.908,forced_choiceRT_color,2021.2.3,Win32,60.150375940000004,NA,NA,NA,NA,NA,NA,NA,4,Ontime,long,j,1,1.9642,9,0,36,2,1,NA,NA,NA,NA,NA,1964.2,512.1,1,j,j,1,1,914.6500000000001,j,j,1,memory_color_long,-0.5,-0.5,0.5121,TRUE,TRUE,TRUE,FALSE
NA,0.49,NA,NA,NA,NA,NA,NA,NA,NA,k,purple,55ae64defdf99b3f864653e7,2021-09-27_16h09.33.908,forced_choiceRT_color,2021.2.3,Win32,60.150375940000004,NA,NA,NA,NA,NA,NA,NA,5,Ontime,long,k,1,1.9144,0,1,1,3,1,NA,NA,NA,NA,NA,1914.4,712.2,1,k,k,1,1,442.75,j,j,1,memory_color_long,-0.5,-0.5,0.7122,FALSE,FALSE,FALSE,FALSE
NA,0.64,NA,NA,NA,NA,NA,NA,NA,NA,d,orange,55ae64defdf99b3f864653e7,2021-09-27_16h09.33.908,forced_choiceRT_color,2021.2.3,Win32,60.150375940000004,NA,NA,NA,NA,NA,NA,NA,5,Ontime,long,d,1,1.9851,0,2,2,0,1,NA,NA,NA,NA,NA,1985.1000000000001,672.55,1,d,d,1,1,712.2,k,k,1,memory_color_long,-0.5,-0.5,0.67255,FALSE,FALSE,FALSE,FALSE
NA,0.93,NA,NA,NA,NA,NA,NA,NA,NA,k,purple,55ae64defdf99b3f864653e7,2021-09-27_16h09.33.908,forced_choiceRT_color,2021.2.3,Win32,60.150375940000004,NA,NA,NA,NA,NA,NA,NA,5,Ontime,long,k,1,1.9803,1,1,5,3,1,NA,NA,NA,NA,NA,1980.3,525.15,1,k,k,0,0,775.55,j,f,1,memory_color_long,0.5,0.5,0.52515,FALSE,FALSE,FALSE,FALSE
NA,1.25,NA,NA,NA,NA,NA,NA,NA,NA,d,orange,55ae64defdf99b3f864653e7,2021-09-27_16h09.33.908,forced_choiceRT_color,2021.2.3,Win32,60.150375940000004,NA,NA,NA,NA,NA,NA,NA,5,Ontime,long,d,1,2.0378,1,2,6,0,1,NA,NA,NA,NA,NA,2037.7999999999997,393.8999999999999,1,d,d,0,1,525.15,k,k,1,memory_color_long,0.5,-0.5,0.3938999999999999,FALSE,FALSE,FALSE,FALSE
NA,1.5,NA,NA,NA,NA,NA,NA,NA,NA,j,red,55ae64defdf99b3f864653e7,2021-09-27_16h09.33.908,forced_choiceRT_color,2021.2.3,Win32,60.150375940000004,NA,NA,NA,NA,NA,NA,NA,5,Ontime,long,j,1,1.933,2,3,11,2,1,NA,NA,NA,NA,NA,1933,216.50000000000003,1,j,j,1,1,668.5,f,f,1,memory_color_long,-0.5,-0.5,0.21650000000000003,FALSE,FALSE,FALSE,FALSE
NA,0.9,NA,NA,NA,NA,NA,NA,NA,NA,j,red,55ae64defdf99b3f864653e7,2021-09-27_16h09.33.908,forced_choiceRT_color,2021.2.3,Win32,60.150375940000004,NA,NA,NA,NA,NA,NA,NA,5,Ontime,long,j,1,2.0701,3,0,12,2,1,NA,NA,NA,NA,NA,2070.1,585.0500000000001,1,j,j,1,1,216.50000000000003,j,j,1,memory_color_long,-0.5,-0.5,0.5850500000000001,TRUE,TRUE,TRUE,FALSE
NA,1.43,NA,NA,NA,NA,NA,NA,NA,NA,j,red,55ae64defdf99b3f864653e7,2021-09-27_16h09.33.908,forced_choiceRT_color,2021.2.3,Win32,60.150375940000004,NA,NA,NA,NA,NA,NA,NA,5,Ontime,long,j,1,1.9701,3,1,13,2,1,NA,NA,NA,NA,NA,1970.1,270.05,1,j,j,1,1,585.0500000000001,j,j,1,memory_color_long,-0.5,-0.5,0.27005,TRUE,TRUE,TRUE,FALSE
NA,1.62,NA,NA,NA,NA,NA,NA,NA,NA,j,red,55ae64defdf99b3f864653e7,2021-09-27_16h09.33.908,forced_choiceRT_color,2021.2.3,Win32,60.150375940000004,NA,NA,NA,NA,NA,NA,NA,5,Ontime,long,j,1,2.0341,3,2,14,2,1,NA,NA,NA,NA,NA,2034.1,207.04999999999995,1,j,j,1,1,270.05,j,j,1,memory_color_long,-0.5,-0.5,0.20704999999999996,TRUE,TRUE,TRUE,FALSE
NA,1.18,NA,NA,NA,NA,NA,NA,NA,NA,d,orange,55ae64defdf99b3f864653e7,2021-09-27_16h09.33.908,forced_choiceRT_color,2021.2.3,Win32,60.150375940000004,NA,NA,NA,NA,NA,NA,NA,5,Ontime,long,f,0,1.9046,4,0,16,0,1,NA,NA,NA,NA,NA,1904.6000000000001,362.30000000000007,0,f,d,1,1,203.75000000000009,j,j,0,memory_color_long,-0.5,-0.5,0.36230000000000007,FALSE,FALSE,FALSE,FALSE
NA,0.52,NA,NA,NA,NA,NA,NA,NA,NA,j,red,55ae64defdf99b3f864653e7,2021-09-27_16h09.33.908,forced_choiceRT_color,2021.2.3,Win32,60.150375940000004,NA,NA,NA,NA,NA,NA,NA,5,Ontime,long,j,1,1.9945,4,1,17,2,1,NA,NA,NA,NA,NA,1994.5,737.25,1,j,j,1,0,362.30000000000007,f,d,1,memory_color_long,-0.5,0.5,0.73725,FALSE,FALSE,FALSE,FALSE
NA,0.98,NA,NA,NA,NA,NA,NA,NA,NA,k,purple,55ae64defdf99b3f864653e7,2021-09-27_16h09.33.908,forced_choiceRT_color,2021.2.3,Win32,60.150375940000004,NA,NA,NA,NA,NA,NA,NA,5,Ontime,long,k,1,1.9159,4,2,18,3,1,NA,NA,NA,NA,NA,1915.8999999999999,467.95,1,k,k,0,1,737.25,j,j,1,memory_color_long,0.5,-0.5,0.46795,FALSE,FALSE,FALSE,FALSE
NA,0.61,NA,NA,NA,NA,NA,NA,NA,NA,k,purple,55ae64defdf99b3f864653e7,2021-09-27_16h09.33.908,forced_choiceRT_color,2021.2.3,Win32,60.150375940000004,NA,NA,NA,NA,NA,NA,NA,5,Ontime,long,k,1,1.9097,4,3,19,3,1,NA,NA,NA,NA,NA,1909.7,649.85,1,k,k,1,1,467.95,k,k,1,memory_color_long,-0.5,-0.5,0.64985,TRUE,TRUE,TRUE,FALSE
NA,1.52,NA,NA,NA,NA,NA,NA,NA,NA,k,purple,55ae64defdf99b3f864653e7,2021-09-27_16h09.33.908,forced_choiceRT_color,2021.2.3,Win32,60.150375940000004,NA,NA,NA,NA,NA,NA,NA,5,Ontime,long,k,1,2.0064,5,0,20,3,1,NA,NA,NA,NA,NA,2006.4,243.20000000000007,1,k,k,1,1,649.85,k,k,1,memory_color_long,-0.5,-0.5,0.24320000000000008,TRUE,TRUE,TRUE,FALSE
NA,0.17,NA,NA,NA,NA,NA,NA,NA,NA,f,blue,55ae64defdf99b3f864653e7,2021-09-27_16h09.33.908,forced_choiceRT_color,2021.2.3,Win32,60.150375940000004,NA,NA,NA,NA,NA,NA,NA,5,Ontime,long,f,1,1.9352,5,3,23,1,1,NA,NA,NA,NA,NA,1935.2,882.6,1,f,f,1,1,224.65,j,j,1,memory_color_long,-0.5,-0.5,0.8826,FALSE,FALSE,FALSE,FALSE
NA,0.86,NA,NA,NA,NA,NA,NA,NA,NA,d,orange,55ae64defdf99b3f864653e7,2021-09-27_16h09.33.908,forced_choiceRT_color,2021.2.3,Win32,60.150375940000004,NA,NA,NA,NA,NA,NA,NA,5,Ontime,long,d,1,1.9702,6,0,24,0,1,NA,NA,NA,NA,NA,1970.2,555.0999999999999,1,d,d,1,1,882.6,f,f,1,memory_color_long,-0.5,-0.5,0.5550999999999999,FALSE,FALSE,FALSE,FALSE
NA,0.46,NA,NA,NA,NA,NA,NA,NA,NA,k,purple,55ae64defdf99b3f864653e7,2021-09-27_16h09.33.908,forced_choiceRT_color,2021.2.3,Win32,60.150375940000004,NA,NA,NA,NA,NA,NA,NA,5,Ontime,long,k,1,1.908,6,1,25,3,1,NA,NA,NA,NA,NA,1908,724,1,k,k,1,1,555.0999999999999,d,d,1,memory_color_long,-0.5,-0.5,0.724,FALSE,FALSE,FALSE,FALSE
NA,0.68,NA,NA,NA,NA,NA,NA,NA,NA,d,orange,55ae64defdf99b3f864653e7,2021-09-27_16h09.33.908,forced_choiceRT_color,2021.2.3,Win32,60.150375940000004,NA,NA,NA,NA,NA,NA,NA,5,Ontime,long,d,1,1.9241,6,2,26,0,1,NA,NA,NA,NA,NA,1924.1,622.05,1,d,d,1,1,724,k,k,1,memory_color_long,-0.5,-0.5,0.62205,FALSE,FALSE,FALSE,FALSE
NA,0.42,NA,NA,NA,NA,NA,NA,NA,NA,d,orange,55ae64defdf99b3f864653e7,2021-09-27_16h09.33.908,forced_choiceRT_color,2021.2.3,Win32,60.150375940000004,NA,NA,NA,NA,NA,NA,NA,5,Ontime,long,d,1,1.9057,7,3,31,0,1,NA,NA,NA,NA,NA,1905.7,742.85,1,d,d,1,1,314.40000000000003,k,k,1,memory_color_long,-0.5,-0.5,0.74285,FALSE,FALSE,FALSE,FALSE
NA,0.67,NA,NA,NA,NA,NA,NA,NA,NA,f,blue,55ae64defdf99b3f864653e7,2021-09-27_16h09.33.908,forced_choiceRT_color,2021.2.3,Win32,60.150375940000004,NA,NA,NA,NA,NA,NA,NA,5,Ontime,long,f,1,2.0407,8,0,32,1,1,NA,NA,NA,NA,NA,2040.7000000000003,685.3500000000001,1,f,f,1,1,742.85,d,d,1,memory_color_long,-0.5,-0.5,0.6853500000000001,FALSE,FALSE,FALSE,FALSE
NA,0.28,NA,NA,NA,NA,NA,NA,NA,NA,f,blue,55ae64defdf99b3f864653e7,2021-09-27_16h09.33.908,forced_choiceRT_color,2021.2.3,Win32,60.150375940000004,NA,NA,NA,NA,NA,NA,NA,5,Ontime,long,f,1,2.0328,8,1,33,1,1,NA,NA,NA,NA,NA,2032.8,876.4,1,f,f,1,1,685.3500000000001,f,f,1,memory_color_long,-0.5,-0.5,0.8764,TRUE,TRUE,TRUE,FALSE
NA,0.62,NA,NA,NA,NA,NA,NA,NA,NA,f,blue,55ae64defdf99b3f864653e7,2021-09-27_16h09.33.908,forced_choiceRT_color,2021.2.3,Win32,60.150375940000004,NA,NA,NA,NA,NA,NA,NA,5,Ontime,long,f,1,1.9172,8,2,34,1,1,NA,NA,NA,NA,NA,1917.2,648.6,1,f,f,1,1,876.4,f,f,1,memory_color_long,-0.5,-0.5,0.6486000000000001,TRUE,TRUE,TRUE,FALSE
NA,0.28,NA,NA,NA,NA,NA,NA,NA,NA,f,blue,55ae64defdf99b3f864653e7,2021-09-27_16h09.33.908,forced_choiceRT_color,2021.2.3,Win32,60.150375940000004,NA,NA,NA,NA,NA,NA,NA,5,Ontime,long,f,1,1.9261,8,3,35,1,1,NA,NA,NA,NA,NA,1926.1,823.05,1,f,f,1,1,648.6,f,f,1,memory_color_long,-0.5,-0.5,0.82305,TRUE,TRUE,TRUE,FALSE
NA,0.97,NA,NA,NA,NA,NA,NA,NA,NA,d,orange,55ae64defdf99b3f864653e7,2021-09-27_16h09.33.908,forced_choiceRT_color,2021.2.3,Win32,60.150375940000004,NA,NA,NA,NA,NA,NA,NA,5,Ontime,long,d,1,2.0087,9,2,38,0,1,NA,NA,NA,NA,NA,2008.7,519.3500000000001,1,d,d,1,0,225.89999999999998,j,f,1,memory_color_long,-0.5,0.5,0.5193500000000001,FALSE,FALSE,FALSE,FALSE
NA,1.24,NA,NA,NA,NA,NA,NA,NA,NA,f,blue,55ae64defdf99b3f864653e7,2021-09-27_16h09.33.908,forced_choiceRT_color,2021.2.3,Win32,60.150375940000004,NA,NA,NA,NA,NA,NA,NA,5,Ontime,long,f,1,2.0302,9,3,39,1,1,NA,NA,NA,NA,NA,2030.1999999999998,395.0999999999999,1,f,f,0,1,519.3500000000001,d,d,1,memory_color_long,0.5,-0.5,0.3950999999999999,FALSE,FALSE,FALSE,FALSE
NA,1.03,NA,NA,NA,NA,NA,NA,NA,NA,k,purple,55ae64defdf99b3f864653e7,2021-09-27_16h09.33.908,forced_choiceRT_color,2021.2.3,Win32,60.150375940000004,NA,NA,NA,NA,NA,NA,NA,6,Ontime,long,k,1,1.9266,0,3,3,3,1,NA,NA,NA,NA,NA,1926.6000000000001,448.3,1,k,k,1,1,249.75000000000003,k,k,1,memory_color_long,-0.5,-0.5,0.44830000000000003,TRUE,TRUE,TRUE,FALSE
NA,1.19,NA,NA,NA,NA,NA,NA,NA,NA,f,blue,55ae64defdf99b3f864653e7,2021-09-27_16h09.33.908,forced_choiceRT_color,2021.2.3,Win32,60.150375940000004,NA,NA,NA,NA,NA,NA,NA,6,Ontime,long,f,1,1.9479,1,0,4,1,1,NA,NA,NA,NA,NA,1947.8999999999999,378.95,1,f,f,1,1,448.3,k,k,1,memory_color_long,-0.5,-0.5,0.37895,FALSE,FALSE,FALSE,FALSE
NA,1.16,NA,NA,NA,NA,NA,NA,NA,NA,f,blue,55ae64defdf99b3f864653e7,2021-09-27_16h09.33.908,forced_choiceRT_color,2021.2.3,Win32,60.150375940000004,NA,NA,NA,NA,NA,NA,NA,6,Ontime,long,f,1,1.9964,1,3,7,1,1,NA,NA,NA,NA,NA,1996.3999999999999,418.2,1,f,f,1,1,360.50000000000006,d,d,1,memory_color_long,-0.5,-0.5,0.4182,FALSE,FALSE,FALSE,FALSE
NA,1.05,NA,NA,NA,NA,NA,NA,NA,NA,f,blue,55ae64defdf99b3f864653e7,2021-09-27_16h09.33.908,forced_choiceRT_color,2021.2.3,Win32,60.150375940000004,NA,NA,NA,NA,NA,NA,NA,6,Ontime,long,f,1,1.9819,2,0,8,1,1,NA,NA,NA,NA,NA,1981.9,465.95,1,f,f,1,1,418.2,f,f,1,memory_color_long,-0.5,-0.5,0.46595,TRUE,TRUE,TRUE,FALSE
NA,0.89,NA,NA,NA,NA,NA,NA,NA,NA,d,orange,55ae64defdf99b3f864653e7,2021-09-27_16h09.33.908,forced_choiceRT_color,2021.2.3,Win32,60.150375940000004,NA,NA,NA,NA,NA,NA,NA,6,Ontime,long,d,1,2.0441,2,2,10,0,1,NA,NA,NA,NA,NA,2044.1,577.0499999999998,1,d,d,1,0,152.80000000000004,j,f,1,memory_color_long,-0.5,0.5,0.5770499999999998,FALSE,FALSE,FALSE,FALSE
NA,0.33,NA,NA,NA,NA,NA,NA,NA,NA,k,purple,55ae64defdf99b3f864653e7,2021-09-27_16h09.33.908,forced_choiceRT_color,2021.2.3,Win32,60.150375940000004,NA,NA,NA,NA,NA,NA,NA,6,Ontime,long,k,1,2.0761,2,3,11,3,1,NA,NA,NA,NA,NA,2076.1,873.0499999999998,1,k,k,0,1,577.0499999999998,d,d,1,memory_color_long,0.5,-0.5,0.8730499999999999,FALSE,FALSE,FALSE,FALSE
NA,0.2,NA,NA,NA,NA,NA,NA,NA,NA,f,blue,55ae64defdf99b3f864653e7,2021-09-27_16h09.33.908,forced_choiceRT_color,2021.2.3,Win32,60.150375940000004,NA,NA,NA,NA,NA,NA,NA,6,Ontime,long,f,1,1.9048,3,0,12,1,1,NA,NA,NA,NA,NA,1904.8,852.4000000000001,1,f,f,1,1,873.0499999999998,k,k,1,memory_color_long,-0.5,-0.5,0.8524,FALSE,FALSE,FALSE,FALSE
NA,0.53,NA,NA,NA,NA,NA,NA,NA,NA,f,blue,55ae64defdf99b3f864653e7,2021-09-27_16h09.33.908,forced_choiceRT_color,2021.2.3,Win32,60.150375940000004,NA,NA,NA,NA,NA,NA,NA,6,Ontime,long,f,1,1.9858,3,1,13,1,1,NA,NA,NA,NA,NA,1985.8,727.9,1,f,f,1,1,852.4000000000001,f,f,1,memory_color_long,-0.5,-0.5,0.7279,TRUE,TRUE,TRUE,FALSE
NA,0.98,NA,NA,NA,NA,NA,NA,NA,NA,d,orange,55ae64defdf99b3f864653e7,2021-09-27_16h09.33.908,forced_choiceRT_color,2021.2.3,Win32,60.150375940000004,NA,NA,NA,NA,NA,NA,NA,6,Ontime,long,d,1,1.969,3,3,15,0,1,NA,NA,NA,NA,NA,1969,494.50000000000006,1,d,d,1,1,204.95000000000007,j,j,1,memory_color_long,-0.5,-0.5,0.49450000000000005,FALSE,FALSE,FALSE,FALSE
NA,1.97,NA,NA,NA,NA,NA,NA,NA,NA,k,purple,55ae64defdf99b3f864653e7,2021-09-27_16h09.33.908,forced_choiceRT_color,2021.2.3,Win32,60.150375940000004,NA,NA,NA,NA,NA,NA,NA,6,Ontime,long,j,0,2.0653,4,1,17,3,1,NA,NA,NA,NA,NA,2065.3,47.650000000000084,0,j,k,1,1,821.3000000000001,f,f,0,memory_color_long,-0.5,-0.5,0.04765000000000008,FALSE,FALSE,FALSE,FALSE
NA,0.25,NA,NA,NA,NA,NA,NA,NA,NA,k,purple,55ae64defdf99b3f864653e7,2021-09-27_16h09.33.908,forced_choiceRT_color,2021.2.3,Win32,60.150375940000004,NA,NA,NA,NA,NA,NA,NA,6,Ontime,long,k,1,1.9628,4,2,18,3,1,NA,NA,NA,NA,NA,1962.8000000000002,856.4000000000001,1,k,k,1,0,47.650000000000084,j,k,1,memory_color_long,-0.5,0.5,0.8564,FALSE,TRUE,FALSE,TRUE
NA,1.5,NA,NA,NA,NA,NA,NA,NA,NA,f,blue,55ae64defdf99b3f864653e7,2021-09-27_16h09.33.908,forced_choiceRT_color,2021.2.3,Win32,60.150375940000004,NA,NA,NA,NA,NA,NA,NA,6,Ontime,long,f,1,2.0158,4,3,19,1,1,NA,NA,NA,NA,NA,2015.8,257.90000000000003,1,f,f,0,1,856.4000000000001,k,k,1,memory_color_long,0.5,-0.5,0.2579,FALSE,FALSE,FALSE,FALSE
NA,0.98,NA,NA,NA,NA,NA,NA,NA,NA,j,red,55ae64defdf99b3f864653e7,2021-09-27_16h09.33.908,forced_choiceRT_color,2021.2.3,Win32,60.150375940000004,NA,NA,NA,NA,NA,NA,NA,6,Ontime,long,j,1,2.0934,5,2,22,2,1,NA,NA,NA,NA,NA,2093.4,556.6999999999999,1,j,j,0,0,258.85,f,d,1,memory_color_long,0.5,0.5,0.5567,FALSE,FALSE,FALSE,FALSE
NA,0.61,NA,NA,NA,NA,NA,NA,NA,NA,j,red,55ae64defdf99b3f864653e7,2021-09-27_16h09.33.908,forced_choiceRT_color,2021.2.3,Win32,60.150375940000004,NA,NA,NA,NA,NA,NA,NA,6,Ontime,long,j,1,2.0213,6,2,26,2,1,NA,NA,NA,NA,NA,2021.3000000000002,705.6500000000001,1,j,j,1,0,232.45000000000016,j,d,1,memory_color_long,-0.5,0.5,0.7056500000000001,TRUE,FALSE,TRUE,FALSE
NA,1,NA,NA,NA,NA,NA,NA,NA,NA,j,red,55ae64defdf99b3f864653e7,2021-09-27_16h09.33.908,forced_choiceRT_color,2021.2.3,Win32,60.150375940000004,NA,NA,NA,NA,NA,NA,NA,6,Ontime,long,j,1,2.0227,6,3,27,2,1,NA,NA,NA,NA,NA,2022.7,511.34999999999997,1,j,j,0,1,705.6500000000001,j,j,1,memory_color_long,0.5,-0.5,0.51135,TRUE,TRUE,TRUE,FALSE
NA,1.4,NA,NA,NA,NA,NA,NA,NA,NA,j,red,55ae64defdf99b3f864653e7,2021-09-27_16h09.33.908,forced_choiceRT_color,2021.2.3,Win32,60.150375940000004,NA,NA,NA,NA,NA,NA,NA,6,Ontime,long,j,1,1.9476,7,0,28,2,1,NA,NA,NA,NA,NA,1947.6,273.80000000000007,1,j,j,1,1,511.34999999999997,j,j,1,memory_color_long,-0.5,-0.5,0.27380000000000004,TRUE,TRUE,TRUE,FALSE
NA,0.7,NA,NA,NA,NA,NA,NA,NA,NA,j,red,55ae64defdf99b3f864653e7,2021-09-27_16h09.33.908,forced_choiceRT_color,2021.2.3,Win32,60.150375940000004,NA,NA,NA,NA,NA,NA,NA,6,Ontime,long,j,1,1.9754,7,1,29,2,1,NA,NA,NA,NA,NA,1975.4,637.7,1,j,j,1,1,273.80000000000007,j,j,1,memory_color_long,-0.5,-0.5,0.6377,TRUE,TRUE,TRUE,FALSE
NA,0.5,NA,NA,NA,NA,NA,NA,NA,NA,j,red,55ae64defdf99b3f864653e7,2021-09-27_16h09.33.908,forced_choiceRT_color,2021.2.3,Win32,60.150375940000004,NA,NA,NA,NA,NA,NA,NA,6,Ontime,long,j,1,1.9362,7,2,30,2,1,NA,NA,NA,NA,NA,1936.1999999999998,718.0999999999999,1,j,j,1,1,637.7,j,j,1,memory_color_long,-0.5,-0.5,0.7181,TRUE,TRUE,TRUE,FALSE
NA,1.14,NA,NA,NA,NA,NA,NA,NA,NA,k,purple,55ae64defdf99b3f864653e7,2021-09-27_16h09.33.908,forced_choiceRT_color,2021.2.3,Win32,60.150375940000004,NA,NA,NA,NA,NA,NA,NA,6,Ontime,long,k,1,1.9065,8,2,34,3,1,NA,NA,NA,NA,NA,1906.5,383.2500000000001,1,k,k,0,1,274.34999999999997,d,d,1,memory_color_long,0.5,-0.5,0.3832500000000001,FALSE,FALSE,FALSE,FALSE
NA,0.92,NA,NA,NA,NA,NA,NA,NA,NA,d,orange,55ae64defdf99b3f864653e7,2021-09-27_16h09.33.908,forced_choiceRT_color,2021.2.3,Win32,60.150375940000004,NA,NA,NA,NA,NA,NA,NA,6,Ontime,long,j,0,1.9834,9,0,36,0,1,NA,NA,NA,NA,NA,1983.4,531.7,0,j,d,1,1,814.1,f,f,0,memory_color_long,-0.5,-0.5,0.5317000000000001,FALSE,FALSE,FALSE,FALSE
NA,0.27,NA,NA,NA,NA,NA,NA,NA,NA,d,orange,55ae64defdf99b3f864653e7,2021-09-27_16h09.33.908,forced_choiceRT_color,2021.2.3,Win32,60.150375940000004,NA,NA,NA,NA,NA,NA,NA,6,Ontime,long,d,1,1.9538,9,1,37,0,1,NA,NA,NA,NA,NA,1953.8,841.9,1,d,d,1,0,531.7,j,d,1,memory_color_long,-0.5,0.5,0.8419,FALSE,TRUE,FALSE,FALSE
NA,1.54,NA,NA,NA,NA,NA,NA,NA,NA,k,purple,55ae64defdf99b3f864653e7,2021-09-27_16h09.33.908,forced_choiceRT_color,2021.2.3,Win32,60.150375940000004,NA,NA,NA,NA,NA,NA,NA,6,Ontime,long,j,0,2.0614,9,3,39,3,1,NA,NA,NA,NA,NA,2061.4,260.69999999999993,0,j,k,1,1,318.3999999999999,f,f,0,memory_color_long,-0.5,-0.5,0.26069999999999993,FALSE,FALSE,FALSE,FALSE
NA,1.29,NA,NA,NA,NA,NA,NA,NA,NA,f,blue,55ae64defdf99b3f864653e7,2021-09-27_16h09.33.908,forced_choiceRT_color,2021.2.3,Win32,60.150375940000004,NA,NA,NA,NA,NA,NA,NA,7,Ontime,long,f,1,1.9977,0,1,1,1,1,NA,NA,NA,NA,NA,1997.7,353.85,1,f,f,0,1,814.6,j,j,1,memory_color_long,0.5,-0.5,0.35385,FALSE,FALSE,FALSE,FALSE
NA,0.51,NA,NA,NA,NA,NA,NA,NA,NA,k,purple,55ae64defdf99b3f864653e7,2021-09-27_16h09.33.908,forced_choiceRT_color,2021.2.3,Win32,60.150375940000004,NA,NA,NA,NA,NA,NA,NA,7,Ontime,long,k,1,1.9783,0,3,3,3,1,NA,NA,NA,NA,NA,1978.3,734.15,1,k,k,1,1,293.45,f,f,1,memory_color_long,-0.5,-0.5,0.73415,FALSE,FALSE,FALSE,FALSE
NA,0.72,NA,NA,NA,NA,NA,NA,NA,NA,k,purple,55ae64defdf99b3f864653e7,2021-09-27_16h09.33.908,forced_choiceRT_color,2021.2.3,Win32,60.150375940000004,NA,NA,NA,NA,NA,NA,NA,7,Ontime,long,k,1,2.0717,1,0,4,3,1,NA,NA,NA,NA,NA,2071.7,675.8499999999999,1,k,k,1,1,734.15,k,k,1,memory_color_long,-0.5,-0.5,0.67585,TRUE,TRUE,TRUE,FALSE
NA,0.55,NA,NA,NA,NA,NA,NA,NA,NA,d,orange,55ae64defdf99b3f864653e7,2021-09-27_16h09.33.908,forced_choiceRT_color,2021.2.3,Win32,60.150375940000004,NA,NA,NA,NA,NA,NA,NA,7,Ontime,long,f,0,1.9541,1,2,6,0,1,NA,NA,NA,NA,NA,1954.1,702.05,0,f,d,1,1,381.69999999999993,j,j,0,memory_color_long,-0.5,-0.5,0.70205,FALSE,FALSE,FALSE,FALSE
NA,1.07,NA,NA,NA,NA,NA,NA,NA,NA,k,purple,55ae64defdf99b3f864653e7,2021-09-27_16h09.33.908,forced_choiceRT_color,2021.2.3,Win32,60.150375940000004,NA,NA,NA,NA,NA,NA,NA,7,Ontime,long,k,1,1.9563,1,3,7,3,1,NA,NA,NA,NA,NA,1956.3,443.1499999999999,1,k,k,1,0,702.05,f,d,1,memory_color_long,-0.5,0.5,0.44314999999999993,FALSE,FALSE,FALSE,FALSE
NA,0.04,NA,NA,NA,NA,NA,NA,NA,NA,f,blue,55ae64defdf99b3f864653e7,2021-09-27_16h09.33.908,forced_choiceRT_color,2021.2.3,Win32,60.150375940000004,NA,NA,NA,NA,NA,NA,NA,7,Ontime,long,f,1,1.9922,2,0,8,1,1,NA,NA,NA,NA,NA,1992.2,976.1,1,f,f,0,1,443.1499999999999,k,k,1,memory_color_long,0.5,-0.5,0.9761,FALSE,FALSE,FALSE,FALSE
NA,1.4,NA,NA,NA,NA,NA,NA,NA,NA,j,red,55ae64defdf99b3f864653e7,2021-09-27_16h09.33.908,forced_choiceRT_color,2021.2.3,Win32,60.150375940000004,NA,NA,NA,NA,NA,NA,NA,7,Ontime,long,j,1,1.9713,2,1,9,2,1,NA,NA,NA,NA,NA,1971.3,285.6500000000001,1,j,j,1,1,976.1,f,f,1,memory_color_long,-0.5,-0.5,0.28565000000000007,FALSE,FALSE,FALSE,FALSE
NA,0.91,NA,NA,NA,NA,NA,NA,NA,NA,d,orange,55ae64defdf99b3f864653e7,2021-09-27_16h09.33.908,forced_choiceRT_color,2021.2.3,Win32,60.150375940000004,NA,NA,NA,NA,NA,NA,NA,7,Ontime,long,d,1,2.0059,2,2,10,0,1,NA,NA,NA,NA,NA,2005.9,547.9499999999999,1,d,d,1,1,285.6500000000001,j,j,1,memory_color_long,-0.5,-0.5,0.5479499999999999,FALSE,FALSE,FALSE,FALSE
NA,0.53,NA,NA,NA,NA,NA,NA,NA,NA,j,red,55ae64defdf99b3f864653e7,2021-09-27_16h09.33.908,forced_choiceRT_color,2021.2.3,Win32,60.150375940000004,NA,NA,NA,NA,NA,NA,NA,7,Ontime,long,j,1,1.9134,2,3,11,2,1,NA,NA,NA,NA,NA,1913.4,691.6999999999999,1,j,j,1,1,547.9499999999999,d,d,1,memory_color_long,-0.5,-0.5,0.6917,FALSE,FALSE,FALSE,FALSE
NA,0.64,NA,NA,NA,NA,NA,NA,NA,NA,d,orange,55ae64defdf99b3f864653e7,2021-09-27_16h09.33.908,forced_choiceRT_color,2021.2.3,Win32,60.150375940000004,NA,NA,NA,NA,NA,NA,NA,7,Ontime,long,d,1,2.0498,3,2,14,0,1,NA,NA,NA,NA,NA,2049.7999999999997,704.8999999999999,1,d,d,1,1,251.30000000000007,d,d,1,memory_color_long,-0.5,-0.5,0.7048999999999999,TRUE,TRUE,TRUE,FALSE
NA,0.76,NA,NA,NA,NA,NA,NA,NA,NA,f,blue,55ae64defdf99b3f864653e7,2021-09-27_16h09.33.908,forced_choiceRT_color,2021.2.3,Win32,60.150375940000004,NA,NA,NA,NA,NA,NA,NA,7,Ontime,long,f,1,1.9528,3,3,15,1,1,NA,NA,NA,NA,NA,1952.8000000000002,596.4000000000001,1,f,f,1,1,704.8999999999999,d,d,1,memory_color_long,-0.5,-0.5,0.5964,FALSE,FALSE,FALSE,FALSE
NA,0.37,NA,NA,NA,NA,NA,NA,NA,NA,k,purple,55ae64defdf99b3f864653e7,2021-09-27_16h09.33.908,forced_choiceRT_color,2021.2.3,Win32,60.150375940000004,NA,NA,NA,NA,NA,NA,NA,7,Ontime,long,k,1,1.9807,4,0,16,3,1,NA,NA,NA,NA,NA,1980.6999999999998,805.35,1,k,k,1,1,596.4000000000001,f,f,1,memory_color_long,-0.5,-0.5,0.80535,FALSE,FALSE,FALSE,FALSE
NA,1.46,NA,NA,NA,NA,NA,NA,NA,NA,j,red,55ae64defdf99b3f864653e7,2021-09-27_16h09.33.908,forced_choiceRT_color,2021.2.3,Win32,60.150375940000004,NA,NA,NA,NA,NA,NA,NA,7,Ontime,long,j,1,1.9496,5,2,22,2,1,NA,NA,NA,NA,NA,1949.6,244.8,1,j,j,1,1,374.95,j,j,1,memory_color_long,-0.5,-0.5,0.24480000000000002,TRUE,TRUE,TRUE,FALSE
NA,1.85,NA,NA,NA,NA,NA,NA,NA,NA,f,blue,55ae64defdf99b3f864653e7,2021-09-27_16h09.33.908,forced_choiceRT_color,2021.2.3,Win32,60.150375940000004,NA,NA,NA,NA,NA,NA,NA,7,Ontime,long,f,1,2.0844,5,3,23,1,1,NA,NA,NA,NA,NA,2084.4,117.19999999999997,1,f,f,1,1,244.8,j,j,1,memory_color_long,-0.5,-0.5,0.11719999999999997,FALSE,FALSE,FALSE,FALSE
NA,0.16,NA,NA,NA,NA,NA,NA,NA,NA,f,blue,55ae64defdf99b3f864653e7,2021-09-27_16h09.33.908,forced_choiceRT_color,2021.2.3,Win32,60.150375940000004,NA,NA,NA,NA,NA,NA,NA,7,Ontime,long,f,1,1.9312,6,0,24,1,1,NA,NA,NA,NA,NA,1931.2,885.6,1,f,f,1,1,117.19999999999997,f,f,1,memory_color_long,-0.5,-0.5,0.8856,TRUE,TRUE,TRUE,FALSE
NA,0.01,NA,NA,NA,NA,NA,NA,NA,NA,d,orange,55ae64defdf99b3f864653e7,2021-09-27_16h09.33.908,forced_choiceRT_color,2021.2.3,Win32,60.150375940000004,NA,NA,NA,NA,NA,NA,NA,7,Ontime,long,d,1,1.9809,6,1,25,0,1,NA,NA,NA,NA,NA,1980.9,985.45,1,d,d,1,1,885.6,f,f,1,memory_color_long,-0.5,-0.5,0.98545,FALSE,FALSE,FALSE,FALSE
NA,0.87,NA,NA,NA,NA,NA,NA,NA,NA,j,red,55ae64defdf99b3f864653e7,2021-09-27_16h09.33.908,forced_choiceRT_color,2021.2.3,Win32,60.150375940000004,NA,NA,NA,NA,NA,NA,NA,7,Ontime,long,j,1,2.0583,6,2,26,2,1,NA,NA,NA,NA,NA,2058.3,594.15,1,j,j,1,1,985.45,d,d,1,memory_color_long,-0.5,-0.5,0.59415,FALSE,FALSE,FALSE,FALSE
NA,1.23,NA,NA,NA,NA,NA,NA,NA,NA,j,red,55ae64defdf99b3f864653e7,2021-09-27_16h09.33.908,forced_choiceRT_color,2021.2.3,Win32,60.150375940000004,NA,NA,NA,NA,NA,NA,NA,7,Ontime,long,j,1,1.9805,6,3,27,2,1,NA,NA,NA,NA,NA,1980.5,375.25,1,j,j,1,1,594.15,j,j,1,memory_color_long,-0.5,-0.5,0.37525,TRUE,TRUE,TRUE,FALSE
NA,0.85,NA,NA,NA,NA,NA,NA,NA,NA,k,purple,55ae64defdf99b3f864653e7,2021-09-27_16h09.33.908,forced_choiceRT_color,2021.2.3,Win32,60.150375940000004,NA,NA,NA,NA,NA,NA,NA,7,Ontime,long,k,1,2.0216,7,0,28,3,1,NA,NA,NA,NA,NA,2021.6,585.7999999999998,1,k,k,1,1,375.25,j,j,1,memory_color_long,-0.5,-0.5,0.5857999999999999,FALSE,FALSE,FALSE,FALSE
NA,0.3,NA,NA,NA,NA,NA,NA,NA,NA,d,orange,55ae64defdf99b3f864653e7,2021-09-27_16h09.33.908,forced_choiceRT_color,2021.2.3,Win32,60.150375940000004,NA,NA,NA,NA,NA,NA,NA,7,Ontime,long,d,1,2.0354,7,1,29,0,1,NA,NA,NA,NA,NA,2035.4,867.7,1,d,d,1,1,585.7999999999998,k,k,1,memory_color_long,-0.5,-0.5,0.8677,FALSE,FALSE,FALSE,FALSE
NA,1.23,NA,NA,NA,NA,NA,NA,NA,NA,d,orange,55ae64defdf99b3f864653e7,2021-09-27_16h09.33.908,forced_choiceRT_color,2021.2.3,Win32,60.150375940000004,NA,NA,NA,NA,NA,NA,NA,7,Ontime,long,d,1,1.9742,7,2,30,0,1,NA,NA,NA,NA,NA,1974.2,372.09999999999997,1,d,d,1,1,867.7,d,d,1,memory_color_long,-0.5,-0.5,0.3721,TRUE,TRUE,TRUE,FALSE
NA,1.05,NA,NA,NA,NA,NA,NA,NA,NA,k,purple,55ae64defdf99b3f864653e7,2021-09-27_16h09.33.908,forced_choiceRT_color,2021.2.3,Win32,60.150375940000004,NA,NA,NA,NA,NA,NA,NA,7,Ontime,long,j,0,1.9135,7,3,31,3,1,NA,NA,NA,NA,NA,1913.5,431.74999999999994,0,j,k,1,1,372.09999999999997,d,d,0,memory_color_long,-0.5,-0.5,0.43174999999999997,FALSE,FALSE,FALSE,FALSE
NA,1.19,NA,NA,NA,NA,NA,NA,NA,NA,d,orange,55ae64defdf99b3f864653e7,2021-09-27_16h09.33.908,forced_choiceRT_color,2021.2.3,Win32,60.150375940000004,NA,NA,NA,NA,NA,NA,NA,7,Ontime,long,d,1,2.0473,8,0,32,0,1,NA,NA,NA,NA,NA,2047.3,428.65,1,d,d,1,0,431.74999999999994,j,k,1,memory_color_long,-0.5,0.5,0.42865,FALSE,FALSE,FALSE,FALSE
NA,0.49,NA,NA,NA,NA,NA,NA,NA,NA,f,blue,55ae64defdf99b3f864653e7,2021-09-27_16h09.33.908,forced_choiceRT_color,2021.2.3,Win32,60.150375940000004,NA,NA,NA,NA,NA,NA,NA,7,Ontime,long,f,1,2.0286,8,1,33,1,1,NA,NA,NA,NA,NA,2028.6,769.3,1,f,f,0,1,428.65,d,d,1,memory_color_long,0.5,-0.5,0.7693,FALSE,FALSE,FALSE,FALSE
NA,1.02,NA,NA,NA,NA,NA,NA,NA,NA,d,orange,55ae64defdf99b3f864653e7,2021-09-27_16h09.33.908,forced_choiceRT_color,2021.2.3,Win32,60.150375940000004,NA,NA,NA,NA,NA,NA,NA,7,Ontime,long,f,0,2.0315,9,0,36,0,1,NA,NA,NA,NA,NA,2031.4999999999998,505.74999999999994,0,f,d,1,1,238.95,k,k,0,memory_color_long,-0.5,-0.5,0.5057499999999999,FALSE,FALSE,FALSE,FALSE
NA,0.98,NA,NA,NA,NA,NA,NA,NA,NA,f,blue,55ae64defdf99b3f864653e7,2021-09-27_16h09.33.908,forced_choiceRT_color,2021.2.3,Win32,60.150375940000004,NA,NA,NA,NA,NA,NA,NA,7,Ontime,long,f,1,2.0471,9,1,37,1,1,NA,NA,NA,NA,NA,2047.1,533.55,1,f,f,1,0,505.74999999999994,f,d,1,memory_color_long,-0.5,0.5,0.53355,TRUE,FALSE,TRUE,FALSE
NA,0.91,NA,NA,NA,NA,NA,NA,NA,NA,f,blue,55ae64defdf99b3f864653e7,2021-09-27_16h09.33.908,forced_choiceRT_color,2021.2.3,Win32,60.150375940000004,NA,NA,NA,NA,NA,NA,NA,7,Ontime,long,f,1,1.9945,9,2,38,1,1,NA,NA,NA,NA,NA,1994.5,542.2499999999999,1,f,f,0,1,533.55,f,f,1,memory_color_long,0.5,-0.5,0.5422499999999999,TRUE,TRUE,TRUE,FALSE
NA,0.11,NA,NA,NA,NA,NA,NA,NA,NA,k,purple,55ae64defdf99b3f864653e7,2021-09-27_16h09.33.908,forced_choiceRT_color,2021.2.3,Win32,60.150375940000004,NA,NA,NA,NA,NA,NA,NA,7,Ontime,long,k,1,1.9151,9,3,39,3,1,NA,NA,NA,NA,NA,1915.1000000000001,902.55,1,k,k,1,1,542.2499999999999,f,f,1,memory_color_long,-0.5,-0.5,0.90255,FALSE,FALSE,FALSE,FALSE
NA,1.57,NA,NA,NA,NA,NA,NA,NA,NA,j,red,55ae64defdf99b3f864653e7,2021-09-27_16h09.33.908,forced_choiceRT_color,2021.2.3,Win32,60.150375940000004,NA,NA,NA,NA,NA,NA,NA,8,Ontime,long,j,1,2.0373,0,0,0,2,1,NA,NA,NA,NA,NA,2037.3000000000002,233.65000000000003,1,j,j,1,1,902.55,k,k,1,memory_color_long,-0.5,-0.5,0.23365000000000002,FALSE,FALSE,FALSE,FALSE
NA,1.55,NA,NA,NA,NA,NA,NA,NA,NA,d,orange,55ae64defdf99b3f864653e7,2021-09-27_16h09.33.908,forced_choiceRT_color,2021.2.3,Win32,60.150375940000004,NA,NA,NA,NA,NA,NA,NA,8,Ontime,long,d,1,2.0919,1,0,4,0,1,NA,NA,NA,NA,NA,2091.9,270.94999999999993,1,d,d,1,1,366.70000000000005,k,k,1,memory_color_long,-0.5,-0.5,0.2709499999999999,FALSE,FALSE,FALSE,FALSE
NA,1.25,NA,NA,NA,NA,NA,NA,NA,NA,f,blue,55ae64defdf99b3f864653e7,2021-09-27_16h09.33.908,forced_choiceRT_color,2021.2.3,Win32,60.150375940000004,NA,NA,NA,NA,NA,NA,NA,8,Ontime,long,f,1,1.9964,1,1,5,1,1,NA,NA,NA,NA,NA,1996.3999999999999,373.2,1,f,f,1,1,270.94999999999993,d,d,1,memory_color_long,-0.5,-0.5,0.3732,FALSE,FALSE,FALSE,FALSE
NA,0.58,NA,NA,NA,NA,NA,NA,NA,NA,f,blue,55ae64defdf99b3f864653e7,2021-09-27_16h09.33.908,forced_choiceRT_color,2021.2.3,Win32,60.150375940000004,NA,NA,NA,NA,NA,NA,NA,8,Ontime,long,f,1,1.9059,1,3,7,1,1,NA,NA,NA,NA,NA,1905.8999999999999,662.9499999999999,1,f,f,1,0,243.44999999999993,j,k,1,memory_color_long,-0.5,0.5,0.6629499999999999,FALSE,FALSE,FALSE,FALSE
NA,0.06,NA,NA,NA,NA,NA,NA,NA,NA,f,blue,55ae64defdf99b3f864653e7,2021-09-27_16h09.33.908,forced_choiceRT_color,2021.2.3,Win32,60.150375940000004,NA,NA,NA,NA,NA,NA,NA,8,Ontime,long,f,1,1.9727,2,0,8,1,1,NA,NA,NA,NA,NA,1972.6999999999998,956.3499999999999,1,f,f,0,1,662.9499999999999,f,f,1,memory_color_long,0.5,-0.5,0.9563499999999999,TRUE,TRUE,TRUE,FALSE
NA,1.41,NA,NA,NA,NA,NA,NA,NA,NA,j,red,55ae64defdf99b3f864653e7,2021-09-27_16h09.33.908,forced_choiceRT_color,2021.2.3,Win32,60.150375940000004,NA,NA,NA,NA,NA,NA,NA,8,Ontime,long,j,1,2.0804,2,1,9,2,1,NA,NA,NA,NA,NA,2080.4,335.20000000000005,1,j,j,1,1,956.3499999999999,f,f,1,memory_color_long,-0.5,-0.5,0.33520000000000005,FALSE,FALSE,FALSE,FALSE
NA,0.45,NA,NA,NA,NA,NA,NA,NA,NA,d,orange,55ae64defdf99b3f864653e7,2021-09-27_16h09.33.908,forced_choiceRT_color,2021.2.3,Win32,60.150375940000004,NA,NA,NA,NA,NA,NA,NA,8,Ontime,long,d,1,1.969,2,2,10,0,1,NA,NA,NA,NA,NA,1969,759.5000000000001,1,d,d,1,1,335.20000000000005,j,j,1,memory_color_long,-0.5,-0.5,0.7595000000000001,FALSE,FALSE,FALSE,FALSE
NA,0.7,NA,NA,NA,NA,NA,NA,NA,NA,j,red,55ae64defdf99b3f864653e7,2021-09-27_16h09.33.908,forced_choiceRT_color,2021.2.3,Win32,60.150375940000004,NA,NA,NA,NA,NA,NA,NA,8,Ontime,long,j,1,1.9293,2,3,11,2,1,NA,NA,NA,NA,NA,1929.3,614.65,1,j,j,1,1,759.5000000000001,d,d,1,memory_color_long,-0.5,-0.5,0.61465,FALSE,FALSE,FALSE,FALSE
NA,0.31,NA,NA,NA,NA,NA,NA,NA,NA,d,orange,55ae64defdf99b3f864653e7,2021-09-27_16h09.33.908,forced_choiceRT_color,2021.2.3,Win32,60.150375940000004,NA,NA,NA,NA,NA,NA,NA,8,Ontime,long,d,1,1.909,3,0,12,0,1,NA,NA,NA,NA,NA,1909,799.5,1,d,d,1,1,614.65,j,j,1,memory_color_long,-0.5,-0.5,0.7995,FALSE,FALSE,FALSE,FALSE
NA,1.56,NA,NA,NA,NA,NA,NA,NA,NA,j,red,55ae64defdf99b3f864653e7,2021-09-27_16h09.33.908,forced_choiceRT_color,2021.2.3,Win32,60.150375940000004,NA,NA,NA,NA,NA,NA,NA,8,Ontime,long,j,1,2.0791,3,1,13,2,1,NA,NA,NA,NA,NA,2079.1,259.54999999999995,1,j,j,1,1,799.5,d,d,1,memory_color_long,-0.5,-0.5,0.25954999999999995,FALSE,FALSE,FALSE,FALSE
NA,0.93,NA,NA,NA,NA,NA,NA,NA,NA,d,orange,55ae64defdf99b3f864653e7,2021-09-27_16h09.33.908,forced_choiceRT_color,2021.2.3,Win32,60.150375940000004,NA,NA,NA,NA,NA,NA,NA,8,Ontime,long,d,1,2.0135,3,2,14,0,1,NA,NA,NA,NA,NA,2013.5,541.75,1,d,d,1,1,259.54999999999995,j,j,1,memory_color_long,-0.5,-0.5,0.54175,FALSE,FALSE,FALSE,FALSE
NA,0.83,NA,NA,NA,NA,NA,NA,NA,NA,d,orange,55ae64defdf99b3f864653e7,2021-09-27_16h09.33.908,forced_choiceRT_color,2021.2.3,Win32,60.150375940000004,NA,NA,NA,NA,NA,NA,NA,8,Ontime,long,d,1,1.9477,3,3,15,0,1,NA,NA,NA,NA,NA,1947.7,558.85,1,d,d,1,1,541.75,d,d,1,memory_color_long,-0.5,-0.5,0.5588500000000001,TRUE,TRUE,TRUE,FALSE
NA,0.83,NA,NA,NA,NA,NA,NA,NA,NA,j,red,55ae64defdf99b3f864653e7,2021-09-27_16h09.33.908,forced_choiceRT_color,2021.2.3,Win32,60.150375940000004,NA,NA,NA,NA,NA,NA,NA,8,Ontime,long,j,1,1.9981,4,0,16,2,1,NA,NA,NA,NA,NA,1998.1,584.05,1,j,j,1,1,558.85,d,d,1,memory_color_long,-0.5,-0.5,0.58405,FALSE,FALSE,FALSE,FALSE
NA,1.41,NA,NA,NA,NA,NA,NA,NA,NA,j,red,55ae64defdf99b3f864653e7,2021-09-27_16h09.33.908,forced_choiceRT_color,2021.2.3,Win32,60.150375940000004,NA,NA,NA,NA,NA,NA,NA,8,Ontime,long,j,1,1.9885,4,1,17,2,1,NA,NA,NA,NA,NA,1988.5,289.25,1,j,j,1,1,584.05,j,j,1,memory_color_long,-0.5,-0.5,0.28925,TRUE,TRUE,TRUE,FALSE
NA,1.52,NA,NA,NA,NA,NA,NA,NA,NA,k,purple,55ae64defdf99b3f864653e7,2021-09-27_16h09.33.908,forced_choiceRT_color,2021.2.3,Win32,60.150375940000004,NA,NA,NA,NA,NA,NA,NA,8,Ontime,long,k,1,2.0442,4,2,18,3,1,NA,NA,NA,NA,NA,2044.2,262.1,1,k,k,1,1,289.25,j,j,1,memory_color_long,-0.5,-0.5,0.2621,FALSE,FALSE,FALSE,FALSE
NA,1.59,NA,NA,NA,NA,NA,NA,NA,NA,k,purple,55ae64defdf99b3f864653e7,2021-09-27_16h09.33.908,forced_choiceRT_color,2021.2.3,Win32,60.150375940000004,NA,NA,NA,NA,NA,NA,NA,8,Ontime,long,k,1,2.0511,4,3,19,3,1,NA,NA,NA,NA,NA,2051.1,230.54999999999993,1,k,k,1,1,262.1,k,k,1,memory_color_long,-0.5,-0.5,0.23054999999999992,TRUE,TRUE,TRUE,FALSE
NA,0.62,NA,NA,NA,NA,NA,NA,NA,NA,k,purple,55ae64defdf99b3f864653e7,2021-09-27_16h09.33.908,forced_choiceRT_color,2021.2.3,Win32,60.150375940000004,NA,NA,NA,NA,NA,NA,NA,8,Ontime,long,k,1,1.9083,5,2,22,3,1,NA,NA,NA,NA,NA,1908.3000000000002,644.15,1,k,k,1,1,937.9499999999999,k,k,1,memory_color_long,-0.5,-0.5,0.64415,TRUE,TRUE,TRUE,FALSE
NA,0.28,NA,NA,NA,NA,NA,NA,NA,NA,k,purple,55ae64defdf99b3f864653e7,2021-09-27_16h09.33.908,forced_choiceRT_color,2021.2.3,Win32,60.150375940000004,NA,NA,NA,NA,NA,NA,NA,8,Ontime,long,k,1,1.9212,5,3,23,3,1,NA,NA,NA,NA,NA,1921.2,820.6,1,k,k,1,1,644.15,k,k,1,memory_color_long,-0.5,-0.5,0.8206,TRUE,TRUE,TRUE,FALSE
NA,0.83,NA,NA,NA,NA,NA,NA,NA,NA,d,orange,55ae64defdf99b3f864653e7,2021-09-27_16h09.33.908,forced_choiceRT_color,2021.2.3,Win32,60.150375940000004,NA,NA,NA,NA,NA,NA,NA,8,Ontime,long,f,0,2.0413,6,2,26,0,1,NA,NA,NA,NA,NA,2041.3000000000002,605.65,0,f,d,1,1,920.8499999999999,j,j,0,memory_color_long,-0.5,-0.5,0.60565,FALSE,FALSE,FALSE,FALSE
NA,1.42,NA,NA,NA,NA,NA,NA,NA,NA,f,blue,55ae64defdf99b3f864653e7,2021-09-27_16h09.33.908,forced_choiceRT_color,2021.2.3,Win32,60.150375940000004,NA,NA,NA,NA,NA,NA,NA,8,Ontime,long,f,1,2.0306,7,1,29,1,1,NA,NA,NA,NA,NA,2030.6000000000001,305.3000000000001,1,f,f,1,1,524.6500000000001,f,f,1,memory_color_long,-0.5,-0.5,0.3053000000000001,TRUE,TRUE,TRUE,FALSE
NA,0.01,NA,NA,NA,NA,NA,NA,NA,NA,d,orange,55ae64defdf99b3f864653e7,2021-09-27_16h09.33.908,forced_choiceRT_color,2021.2.3,Win32,60.150375940000004,NA,NA,NA,NA,NA,NA,NA,8,Ontime,long,d,1,1.9726,7,2,30,0,1,NA,NA,NA,NA,NA,1972.6,981.3,1,d,d,1,1,305.3000000000001,f,f,1,memory_color_long,-0.5,-0.5,0.9813,FALSE,FALSE,FALSE,FALSE
NA,0.94,NA,NA,NA,NA,NA,NA,NA,NA,k,purple,55ae64defdf99b3f864653e7,2021-09-27_16h09.33.908,forced_choiceRT_color,2021.2.3,Win32,60.150375940000004,NA,NA,NA,NA,NA,NA,NA,8,Ontime,long,k,1,1.9704,8,0,32,3,1,NA,NA,NA,NA,NA,1970.3999999999999,515.2,1,k,k,1,0,206.19999999999993,j,d,1,memory_color_long,-0.5,0.5,0.5152,FALSE,FALSE,FALSE,FALSE
NA,0.99,NA,NA,NA,NA,NA,NA,NA,NA,f,blue,55ae64defdf99b3f864653e7,2021-09-27_16h09.33.908,forced_choiceRT_color,2021.2.3,Win32,60.150375940000004,NA,NA,NA,NA,NA,NA,NA,8,Ontime,long,f,1,1.9644,8,3,35,1,1,NA,NA,NA,NA,NA,1964.3999999999999,487.2,1,f,f,1,1,458.75,j,j,1,memory_color_long,-0.5,-0.5,0.48719999999999997,FALSE,FALSE,FALSE,FALSE
NA,0.87,NA,NA,NA,NA,NA,NA,NA,NA,k,purple,55ae64defdf99b3f864653e7,2021-09-27_16h09.33.908,forced_choiceRT_color,2021.2.3,Win32,60.150375940000004,NA,NA,NA,NA,NA,NA,NA,8,Ontime,long,k,1,1.9468,9,1,37,3,1,NA,NA,NA,NA,NA,1946.8000000000002,538.4,1,k,k,1,1,401.79999999999995,f,f,1,memory_color_long,-0.5,-0.5,0.5384,FALSE,FALSE,FALSE,FALSE
NA,0.94,NA,NA,NA,NA,NA,NA,NA,NA,j,red,55ae64defdf99b3f864653e7,2021-09-27_16h09.33.908,forced_choiceRT_color,2021.2.3,Win32,60.150375940000004,NA,NA,NA,NA,NA,NA,NA,8,Ontime,long,j,1,1.9756,9,2,38,2,1,NA,NA,NA,NA,NA,1975.6,517.8000000000001,1,j,j,1,1,538.4,k,k,1,memory_color_long,-0.5,-0.5,0.5178,FALSE,FALSE,FALSE,FALSE
NA,1.75,NA,NA,NA,NA,NA,NA,NA,NA,d,orange,55ae64defdf99b3f864653e7,2021-09-27_16h09.33.908,forced_choiceRT_color,2021.2.3,Win32,60.150375940000004,NA,NA,NA,NA,NA,NA,NA,9,Ontime,long,k,0,2.0318,0,1,1,0,1,NA,NA,NA,NA,NA,2031.8,140.90000000000003,0,k,d,1,1,251.70000000000005,j,j,0,memory_color_long,-0.5,-0.5,0.14090000000000003,FALSE,FALSE,FALSE,FALSE
NA,0.97,NA,NA,NA,NA,NA,NA,NA,NA,j,red,55ae64defdf99b3f864653e7,2021-09-27_16h09.33.908,forced_choiceRT_color,2021.2.3,Win32,60.150375940000004,NA,NA,NA,NA,NA,NA,NA,9,Ontime,long,j,1,1.9772,0,2,2,2,1,NA,NA,NA,NA,NA,1977.2,503.6,1,j,j,1,0,140.90000000000003,k,d,1,memory_color_long,-0.5,0.5,0.5036,FALSE,FALSE,FALSE,FALSE
NA,0.07,NA,NA,NA,NA,NA,NA,NA,NA,d,orange,55ae64defdf99b3f864653e7,2021-09-27_16h09.33.908,forced_choiceRT_color,2021.2.3,Win32,60.150375940000004,NA,NA,NA,NA,NA,NA,NA,9,Ontime,long,d,1,1.9878,0,3,3,0,1,NA,NA,NA,NA,NA,1987.8,958.9,1,d,d,0,1,503.6,j,j,1,memory_color_long,0.5,-0.5,0.9589,FALSE,FALSE,FALSE,FALSE
NA,0.78,NA,NA,NA,NA,NA,NA,NA,NA,j,red,55ae64defdf99b3f864653e7,2021-09-27_16h09.33.908,forced_choiceRT_color,2021.2.3,Win32,60.150375940000004,NA,NA,NA,NA,NA,NA,NA,9,Ontime,long,j,1,1.9573,1,0,4,2,1,NA,NA,NA,NA,NA,1957.3,588.65,1,j,j,1,1,958.9,d,d,1,memory_color_long,-0.5,-0.5,0.58865,FALSE,FALSE,FALSE,FALSE
NA,0.12,NA,NA,NA,NA,NA,NA,NA,NA,d,orange,55ae64defdf99b3f864653e7,2021-09-27_16h09.33.908,forced_choiceRT_color,2021.2.3,Win32,60.150375940000004,NA,NA,NA,NA,NA,NA,NA,9,Ontime,long,d,1,1.9734,1,1,5,0,1,NA,NA,NA,NA,NA,1973.4,926.7,1,d,d,1,1,588.65,j,j,1,memory_color_long,-0.5,-0.5,0.9267000000000001,FALSE,FALSE,FALSE,FALSE
NA,0.06,NA,NA,NA,NA,NA,NA,NA,NA,f,blue,55ae64defdf99b3f864653e7,2021-09-27_16h09.33.908,forced_choiceRT_color,2021.2.3,Win32,60.150375940000004,NA,NA,NA,NA,NA,NA,NA,9,Ontime,long,j,0,1.9185,1,2,6,1,1,NA,NA,NA,NA,NA,1918.5,929.25,0,j,f,1,1,926.7,d,d,0,memory_color_long,-0.5,-0.5,0.92925,FALSE,FALSE,FALSE,FALSE
NA,1.25,NA,NA,NA,NA,NA,NA,NA,NA,d,orange,55ae64defdf99b3f864653e7,2021-09-27_16h09.33.908,forced_choiceRT_color,2021.2.3,Win32,60.150375940000004,NA,NA,NA,NA,NA,NA,NA,9,Ontime,long,f,0,1.9158,1,3,7,0,1,NA,NA,NA,NA,NA,1915.8,332.9,0,f,d,1,0,929.25,j,f,0,memory_color_long,-0.5,0.5,0.3329,FALSE,FALSE,FALSE,FALSE
NA,1.04,NA,NA,NA,NA,NA,NA,NA,NA,k,purple,55ae64defdf99b3f864653e7,2021-09-27_16h09.33.908,forced_choiceRT_color,2021.2.3,Win32,60.150375940000004,NA,NA,NA,NA,NA,NA,NA,9,Ontime,long,k,1,2.0681,2,0,8,3,1,NA,NA,NA,NA,NA,2068.1,514.0499999999998,1,k,k,0,0,332.9,f,d,1,memory_color_long,0.5,0.5,0.5140499999999999,FALSE,FALSE,FALSE,FALSE
NA,0.99,NA,NA,NA,NA,NA,NA,NA,NA,f,blue,55ae64defdf99b3f864653e7,2021-09-27_16h09.33.908,forced_choiceRT_color,2021.2.3,Win32,60.150375940000004,NA,NA,NA,NA,NA,NA,NA,9,Ontime,long,f,1,2.0121000000000002,2,1,9,1,1,NA,NA,NA,NA,NA,2012.1000000000001,511.0500000000001,1,f,f,0,1,514.0499999999998,k,k,1,memory_color_long,0.5,-0.5,0.5110500000000001,FALSE,FALSE,FALSE,FALSE
NA,0.46,NA,NA,NA,NA,NA,NA,NA,NA,k,purple,55ae64defdf99b3f864653e7,2021-09-27_16h09.33.908,forced_choiceRT_color,2021.2.3,Win32,60.150375940000004,NA,NA,NA,NA,NA,NA,NA,9,Ontime,long,k,1,1.9245,2,2,10,3,1,NA,NA,NA,NA,NA,1924.5,732.2500000000001,1,k,k,1,1,511.0500000000001,f,f,1,memory_color_long,-0.5,-0.5,0.7322500000000001,FALSE,FALSE,FALSE,FALSE
NA,0.12,NA,NA,NA,NA,NA,NA,NA,NA,f,blue,55ae64defdf99b3f864653e7,2021-09-27_16h09.33.908,forced_choiceRT_color,2021.2.3,Win32,60.150375940000004,NA,NA,NA,NA,NA,NA,NA,9,Ontime,long,f,1,2.0129,2,3,11,1,1,NA,NA,NA,NA,NA,2012.9,946.45,1,f,f,1,1,732.2500000000001,k,k,1,memory_color_long,-0.5,-0.5,0.94645,FALSE,FALSE,FALSE,FALSE
NA,0.95,NA,NA,NA,NA,NA,NA,NA,NA,j,red,55ae64defdf99b3f864653e7,2021-09-27_16h09.33.908,forced_choiceRT_color,2021.2.3,Win32,60.150375940000004,NA,NA,NA,NA,NA,NA,NA,9,Ontime,long,j,1,2.0239,3,0,12,2,1,NA,NA,NA,NA,NA,2023.8999999999999,536.9499999999999,1,j,j,1,1,946.45,f,f,1,memory_color_long,-0.5,-0.5,0.5369499999999999,FALSE,FALSE,FALSE,FALSE
NA,0.2,NA,NA,NA,NA,NA,NA,NA,NA,d,orange,55ae64defdf99b3f864653e7,2021-09-27_16h09.33.908,forced_choiceRT_color,2021.2.3,Win32,60.150375940000004,NA,NA,NA,NA,NA,NA,NA,9,Ontime,long,d,1,2.0348,3,1,13,0,1,NA,NA,NA,NA,NA,2034.8000000000002,917.4000000000001,1,d,d,1,1,536.9499999999999,j,j,1,memory_color_long,-0.5,-0.5,0.9174000000000001,FALSE,FALSE,FALSE,FALSE
NA,0.25,NA,NA,NA,NA,NA,NA,NA,NA,k,purple,55ae64defdf99b3f864653e7,2021-09-27_16h09.33.908,forced_choiceRT_color,2021.2.3,Win32,60.150375940000004,NA,NA,NA,NA,NA,NA,NA,9,Ontime,long,k,1,1.901,3,2,14,3,1,NA,NA,NA,NA,NA,1901,825.5,1,k,k,1,1,917.4000000000001,d,d,1,memory_color_long,-0.5,-0.5,0.8255,FALSE,FALSE,FALSE,FALSE
NA,1.41,NA,NA,NA,NA,NA,NA,NA,NA,d,orange,55ae64defdf99b3f864653e7,2021-09-27_16h09.33.908,forced_choiceRT_color,2021.2.3,Win32,60.150375940000004,NA,NA,NA,NA,NA,NA,NA,9,Ontime,long,d,1,2.0516,4,0,16,0,1,NA,NA,NA,NA,NA,2051.6,320.80000000000007,1,d,d,1,1,557.35,f,f,1,memory_color_long,-0.5,-0.5,0.3208000000000001,FALSE,FALSE,FALSE,FALSE
NA,0.31,NA,NA,NA,NA,NA,NA,NA,NA,d,orange,55ae64defdf99b3f864653e7,2021-09-27_16h09.33.908,forced_choiceRT_color,2021.2.3,Win32,60.150375940000004,NA,NA,NA,NA,NA,NA,NA,9,Ontime,long,d,1,1.9336,4,1,17,0,1,NA,NA,NA,NA,NA,1933.6,811.8,1,d,d,1,1,320.80000000000007,d,d,1,memory_color_long,-0.5,-0.5,0.8118,TRUE,TRUE,TRUE,FALSE
NA,1.21,NA,NA,NA,NA,NA,NA,NA,NA,j,red,55ae64defdf99b3f864653e7,2021-09-27_16h09.33.908,forced_choiceRT_color,2021.2.3,Win32,60.150375940000004,NA,NA,NA,NA,NA,NA,NA,9,Ontime,long,j,1,1.9251,4,2,18,2,1,NA,NA,NA,NA,NA,1925.1000000000001,357.55,1,j,j,1,1,811.8,d,d,1,memory_color_long,-0.5,-0.5,0.35755000000000003,FALSE,FALSE,FALSE,FALSE
NA,1.37,NA,NA,NA,NA,NA,NA,NA,NA,f,blue,55ae64defdf99b3f864653e7,2021-09-27_16h09.33.908,forced_choiceRT_color,2021.2.3,Win32,60.150375940000004,NA,NA,NA,NA,NA,NA,NA,9,Ontime,long,f,1,1.9645,4,3,19,1,1,NA,NA,NA,NA,NA,1964.5,297.2499999999999,1,f,f,1,1,357.55,j,j,1,memory_color_long,-0.5,-0.5,0.2972499999999999,FALSE,FALSE,FALSE,FALSE
NA,1.05,NA,NA,NA,NA,NA,NA,NA,NA,d,orange,55ae64defdf99b3f864653e7,2021-09-27_16h09.33.908,forced_choiceRT_color,2021.2.3,Win32,60.150375940000004,NA,NA,NA,NA,NA,NA,NA,9,Ontime,long,d,1,1.9952,5,1,21,0,1,NA,NA,NA,NA,NA,1995.2,472.6,1,d,d,1,1,542.35,j,j,1,memory_color_long,-0.5,-0.5,0.4726,FALSE,FALSE,FALSE,FALSE
NA,0.94,NA,NA,NA,NA,NA,NA,NA,NA,k,purple,55ae64defdf99b3f864653e7,2021-09-27_16h09.33.908,forced_choiceRT_color,2021.2.3,Win32,60.150375940000004,NA,NA,NA,NA,NA,NA,NA,9,Ontime,long,k,1,1.9937,5,3,23,3,1,NA,NA,NA,NA,NA,1993.7,526.85,1,k,k,1,1,266.45,j,j,1,memory_color_long,-0.5,-0.5,0.52685,FALSE,FALSE,FALSE,FALSE
NA,0.45,NA,NA,NA,NA,NA,NA,NA,NA,d,orange,55ae64defdf99b3f864653e7,2021-09-27_16h09.33.908,forced_choiceRT_color,2021.2.3,Win32,60.150375940000004,NA,NA,NA,NA,NA,NA,NA,9,Ontime,long,d,1,1.9886,6,1,25,0,1,NA,NA,NA,NA,NA,1988.6,769.3,1,d,d,1,0,266.2999999999999,j,f,1,memory_color_long,-0.5,0.5,0.7693,FALSE,FALSE,FALSE,FALSE
NA,0.26,NA,NA,NA,NA,NA,NA,NA,NA,f,blue,55ae64defdf99b3f864653e7,2021-09-27_16h09.33.908,forced_choiceRT_color,2021.2.3,Win32,60.150375940000004,NA,NA,NA,NA,NA,NA,NA,9,Ontime,long,f,1,2.0017,7,1,29,1,1,NA,NA,NA,NA,NA,2001.7,870.85,1,f,f,1,1,907.6999999999999,j,j,1,memory_color_long,-0.5,-0.5,0.87085,FALSE,FALSE,FALSE,FALSE
NA,0.75,NA,NA,NA,NA,NA,NA,NA,NA,k,purple,55ae64defdf99b3f864653e7,2021-09-27_16h09.33.908,forced_choiceRT_color,2021.2.3,Win32,60.150375940000004,NA,NA,NA,NA,NA,NA,NA,9,Ontime,long,k,1,1.9411,8,0,32,3,1,NA,NA,NA,NA,NA,1941.1000000000001,595.5500000000001,1,k,k,1,1,815.55,j,j,1,memory_color_long,-0.5,-0.5,0.59555,FALSE,FALSE,FALSE,FALSE
NA,0.59,NA,NA,NA,NA,NA,NA,NA,NA,f,blue,55ae64defdf99b3f864653e7,2021-09-27_16h09.33.908,forced_choiceRT_color,2021.2.3,Win32,60.150375940000004,NA,NA,NA,NA,NA,NA,NA,9,Ontime,long,f,1,1.9639,8,1,33,1,1,NA,NA,NA,NA,NA,1963.9,686.9499999999999,1,f,f,1,1,595.5500000000001,k,k,1,memory_color_long,-0.5,-0.5,0.68695,FALSE,FALSE,FALSE,FALSE
NA,0.83,NA,NA,NA,NA,NA,NA,NA,NA,f,blue,55ae64defdf99b3f864653e7,2021-09-27_16h09.33.908,forced_choiceRT_color,2021.2.3,Win32,60.150375940000004,NA,NA,NA,NA,NA,NA,NA,9,Ontime,long,f,1,2.0478,8,2,34,1,1,NA,NA,NA,NA,NA,2047.8,608.9,1,f,f,1,1,686.9499999999999,f,f,1,memory_color_long,-0.5,-0.5,0.6089,TRUE,TRUE,TRUE,FALSE
NA,0.57,NA,NA,NA,NA,NA,NA,NA,NA,k,purple,55ae64defdf99b3f864653e7,2021-09-27_16h09.33.908,forced_choiceRT_color,2021.2.3,Win32,60.150375940000004,NA,NA,NA,NA,NA,NA,NA,9,Ontime,long,k,1,1.9483,8,3,35,3,1,NA,NA,NA,NA,NA,1948.3,689.15,1,k,k,1,1,608.9,f,f,1,memory_color_long,-0.5,-0.5,0.6891499999999999,FALSE,FALSE,FALSE,FALSE
NA,1.2,NA,NA,NA,NA,NA,NA,NA,NA,k,purple,55ae64defdf99b3f864653e7,2021-09-27_16h09.33.908,forced_choiceRT_color,2021.2.3,Win32,60.150375940000004,NA,NA,NA,NA,NA,NA,NA,9,Ontime,long,k,1,1.9469,9,1,37,3,1,NA,NA,NA,NA,NA,1946.9,373.45000000000005,1,k,k,1,1,492.1,j,j,1,memory_color_long,-0.5,-0.5,0.37345000000000006,FALSE,FALSE,FALSE,FALSE
NA,0.7,NA,NA,NA,NA,NA,NA,NA,NA,d,orange,55ae64defdf99b3f864653e7,2021-09-27_16h09.33.908,forced_choiceRT_color,2021.2.3,Win32,60.150375940000004,NA,NA,NA,NA,NA,NA,NA,10,Ontime,long,d,1,1.9612,1,2,6,0,1,NA,NA,NA,NA,NA,1961.2,630.6,1,d,d,1,1,667.6,d,d,1,memory_color_long,-0.5,-0.5,0.6306,TRUE,TRUE,TRUE,FALSE
NA,0.73,NA,NA,NA,NA,NA,NA,NA,NA,k,purple,55ae64defdf99b3f864653e7,2021-09-27_16h09.33.908,forced_choiceRT_color,2021.2.3,Win32,60.150375940000004,NA,NA,NA,NA,NA,NA,NA,10,Ontime,long,j,0,1.9809,1,3,7,3,1,NA,NA,NA,NA,NA,1980.9,625.45,0,j,k,1,1,630.6,d,d,0,memory_color_long,-0.5,-0.5,0.6254500000000001,FALSE,FALSE,FALSE,FALSE
NA,1.17,NA,NA,NA,NA,NA,NA,NA,NA,k,purple,55ae64defdf99b3f864653e7,2021-09-27_16h09.33.908,forced_choiceRT_color,2021.2.3,Win32,60.150375940000004,NA,NA,NA,NA,NA,NA,NA,10,Ontime,long,k,1,1.9628,2,0,8,3,1,NA,NA,NA,NA,NA,1962.8000000000002,396.4000000000001,1,k,k,1,0,625.45,j,k,1,memory_color_long,-0.5,0.5,0.3964000000000001,FALSE,TRUE,FALSE,FALSE
NA,0.17,NA,NA,NA,NA,NA,NA,NA,NA,f,blue,55ae64defdf99b3f864653e7,2021-09-27_16h09.33.908,forced_choiceRT_color,2021.2.3,Win32,60.150375940000004,NA,NA,NA,NA,NA,NA,NA,10,Ontime,long,f,1,1.9311,2,3,11,1,1,NA,NA,NA,NA,NA,1931.1000000000001,880.5500000000001,1,f,f,1,1,462.70000000000005,f,f,1,memory_color_long,-0.5,-0.5,0.88055,TRUE,TRUE,TRUE,FALSE
NA,1.17,NA,NA,NA,NA,NA,NA,NA,NA,f,blue,55ae64defdf99b3f864653e7,2021-09-27_16h09.33.908,forced_choiceRT_color,2021.2.3,Win32,60.150375940000004,NA,NA,NA,NA,NA,NA,NA,10,Ontime,long,f,1,2.0017,3,0,12,1,1,NA,NA,NA,NA,NA,2001.7,415.8500000000001,1,f,f,1,1,880.5500000000001,f,f,1,memory_color_long,-0.5,-0.5,0.41585000000000005,TRUE,TRUE,TRUE,FALSE
NA,0.41,NA,NA,NA,NA,NA,NA,NA,NA,f,blue,55ae64defdf99b3f864653e7,2021-09-27_16h09.33.908,forced_choiceRT_color,2021.2.3,Win32,60.150375940000004,NA,NA,NA,NA,NA,NA,NA,10,Ontime,long,f,1,1.9281,3,1,13,1,1,NA,NA,NA,NA,NA,1928.1,759.05,1,f,f,1,1,415.8500000000001,f,f,1,memory_color_long,-0.5,-0.5,0.75905,TRUE,TRUE,TRUE,FALSE
NA,0.62,NA,NA,NA,NA,NA,NA,NA,NA,j,red,55ae64defdf99b3f864653e7,2021-09-27_16h09.33.908,forced_choiceRT_color,2021.2.3,Win32,60.150375940000004,NA,NA,NA,NA,NA,NA,NA,10,Ontime,long,j,1,1.98,3,2,14,2,1,NA,NA,NA,NA,NA,1980,679.9999999999999,1,j,j,1,1,759.05,f,f,1,memory_color_long,-0.5,-0.5,0.6799999999999999,FALSE,FALSE,FALSE,FALSE
NA,1.41,NA,NA,NA,NA,NA,NA,NA,NA,d,orange,55ae64defdf99b3f864653e7,2021-09-27_16h09.33.908,forced_choiceRT_color,2021.2.3,Win32,60.150375940000004,NA,NA,NA,NA,NA,NA,NA,10,Ontime,long,k,0,2.0141,3,3,15,0,1,NA,NA,NA,NA,NA,2014.1,302.05000000000007,0,k,d,1,1,679.9999999999999,j,j,0,memory_color_long,-0.5,-0.5,0.30205000000000004,FALSE,FALSE,FALSE,FALSE
NA,1.45,NA,NA,NA,NA,NA,NA,NA,NA,d,orange,55ae64defdf99b3f864653e7,2021-09-27_16h09.33.908,forced_choiceRT_color,2021.2.3,Win32,60.150375940000004,NA,NA,NA,NA,NA,NA,NA,10,Ontime,long,d,1,1.9803,4,0,16,0,1,NA,NA,NA,NA,NA,1980.3,265.15,1,d,d,1,0,302.05000000000007,k,d,1,memory_color_long,-0.5,0.5,0.26515,FALSE,TRUE,FALSE,FALSE
NA,0.73,NA,NA,NA,NA,NA,NA,NA,NA,d,orange,55ae64defdf99b3f864653e7,2021-09-27_16h09.33.908,forced_choiceRT_color,2021.2.3,Win32,60.150375940000004,NA,NA,NA,NA,NA,NA,NA,10,Ontime,long,d,1,1.9804,4,1,17,0,1,NA,NA,NA,NA,NA,1980.3999999999999,625.1999999999999,1,d,d,0,1,265.15,d,d,1,memory_color_long,0.5,-0.5,0.6252,TRUE,TRUE,TRUE,FALSE
NA,1.15,NA,NA,NA,NA,NA,NA,NA,NA,j,red,55ae64defdf99b3f864653e7,2021-09-27_16h09.33.908,forced_choiceRT_color,2021.2.3,Win32,60.150375940000004,NA,NA,NA,NA,NA,NA,NA,10,Ontime,long,j,1,1.9792,5,0,20,2,1,NA,NA,NA,NA,NA,1979.2,414.6000000000001,1,j,j,1,1,296.59999999999997,f,f,1,memory_color_long,-0.5,-0.5,0.4146000000000001,FALSE,FALSE,FALSE,FALSE
NA,0.64,NA,NA,NA,NA,NA,NA,NA,NA,k,purple,55ae64defdf99b3f864653e7,2021-09-27_16h09.33.908,forced_choiceRT_color,2021.2.3,Win32,60.150375940000004,NA,NA,NA,NA,NA,NA,NA,10,Ontime,long,k,1,1.9135,5,2,22,3,1,NA,NA,NA,NA,NA,1913.5,636.7499999999999,1,k,k,1,1,224.5999999999999,d,d,1,memory_color_long,-0.5,-0.5,0.6367499999999999,FALSE,FALSE,FALSE,FALSE
NA,0.29,NA,NA,NA,NA,NA,NA,NA,NA,k,purple,55ae64defdf99b3f864653e7,2021-09-27_16h09.33.908,forced_choiceRT_color,2021.2.3,Win32,60.150375940000004,NA,NA,NA,NA,NA,NA,NA,10,Ontime,long,k,1,1.9451,6,0,24,3,1,NA,NA,NA,NA,NA,1945.1000000000001,827.55,1,k,k,1,1,300.55,j,j,1,memory_color_long,-0.5,-0.5,0.82755,FALSE,FALSE,FALSE,FALSE
NA,0.55,NA,NA,NA,NA,NA,NA,NA,NA,f,blue,55ae64defdf99b3f864653e7,2021-09-27_16h09.33.908,forced_choiceRT_color,2021.2.3,Win32,60.150375940000004,NA,NA,NA,NA,NA,NA,NA,10,Ontime,long,f,1,1.9831,6,1,25,1,1,NA,NA,NA,NA,NA,1983.1000000000001,716.5500000000001,1,f,f,1,1,827.55,k,k,1,memory_color_long,-0.5,-0.5,0.71655,FALSE,FALSE,FALSE,FALSE
NA,0.47,NA,NA,NA,NA,NA,NA,NA,NA,j,red,55ae64defdf99b3f864653e7,2021-09-27_16h09.33.908,forced_choiceRT_color,2021.2.3,Win32,60.150375940000004,NA,NA,NA,NA,NA,NA,NA,10,Ontime,long,j,1,1.9831,6,2,26,2,1,NA,NA,NA,NA,NA,1983.1000000000001,756.5500000000001,1,j,j,1,1,716.5500000000001,f,f,1,memory_color_long,-0.5,-0.5,0.7565500000000001,FALSE,FALSE,FALSE,FALSE
NA,0.77,NA,NA,NA,NA,NA,NA,NA,NA,j,red,55ae64defdf99b3f864653e7,2021-09-27_16h09.33.908,forced_choiceRT_color,2021.2.3,Win32,60.150375940000004,NA,NA,NA,NA,NA,NA,NA,10,Ontime,long,j,1,2.0078,6,3,27,2,1,NA,NA,NA,NA,NA,2007.8,618.9,1,j,j,1,1,756.5500000000001,j,j,1,memory_color_long,-0.5,-0.5,0.6189,TRUE,TRUE,TRUE,FALSE
NA,0.57,NA,NA,NA,NA,NA,NA,NA,NA,j,red,55ae64defdf99b3f864653e7,2021-09-27_16h09.33.908,forced_choiceRT_color,2021.2.3,Win32,60.150375940000004,NA,NA,NA,NA,NA,NA,NA,10,Ontime,long,j,1,1.9567,7,1,29,2,1,NA,NA,NA,NA,NA,1956.7,693.3500000000001,1,j,j,1,1,292.00000000000006,k,k,1,memory_color_long,-0.5,-0.5,0.6933500000000001,FALSE,FALSE,FALSE,FALSE
NA,0.46,NA,NA,NA,NA,NA,NA,NA,NA,d,orange,55ae64defdf99b3f864653e7,2021-09-27_16h09.33.908,forced_choiceRT_color,2021.2.3,Win32,60.150375940000004,NA,NA,NA,NA,NA,NA,NA,10,Ontime,long,d,1,1.908,8,1,33,0,1,NA,NA,NA,NA,NA,1908,724,1,d,d,0,1,173.10000000000002,k,k,1,memory_color_long,0.5,-0.5,0.724,FALSE,FALSE,FALSE,FALSE
NA,0.33,NA,NA,NA,NA,NA,NA,NA,NA,k,purple,55ae64defdf99b3f864653e7,2021-09-27_16h09.33.908,forced_choiceRT_color,2021.2.3,Win32,60.150375940000004,NA,NA,NA,NA,NA,NA,NA,10,Ontime,long,k,1,2.0128,9,0,36,3,1,NA,NA,NA,NA,NA,2012.8,841.4,1,k,k,0,1,239.7999999999999,f,f,1,memory_color_long,0.5,-0.5,0.8413999999999999,FALSE,FALSE,FALSE,FALSE
NA,1.53,NA,NA,NA,NA,NA,NA,NA,NA,j,red,55ae64defdf99b3f864653e7,2021-09-27_16h09.33.908,forced_choiceRT_color,2021.2.3,Win32,60.150375940000004,NA,NA,NA,NA,NA,NA,NA,10,Ontime,long,j,1,2.0588,9,1,37,2,1,NA,NA,NA,NA,NA,2058.8,264.4000000000001,1,j,j,1,1,841.4,k,k,1,memory_color_long,-0.5,-0.5,0.2644000000000001,FALSE,FALSE,FALSE,FALSE
NA,1.37,NA,NA,NA,NA,NA,NA,NA,NA,d,orange,55ae64defdf99b3f864653e7,2021-09-27_16h09.33.908,forced_choiceRT_color,2021.2.3,Win32,60.150375940000004,NA,NA,NA,NA,NA,NA,NA,10,Ontime,long,f,0,1.9412,9,2,38,0,1,NA,NA,NA,NA,NA,1941.2,285.59999999999997,0,f,d,1,1,264.4000000000001,j,j,0,memory_color_long,-0.5,-0.5,0.28559999999999997,FALSE,FALSE,FALSE,FALSE
NA,1.55,NA,NA,NA,NA,NA,NA,NA,NA,j,red,56d9ee15610fc00005b71979,2021-09-27_17h24.28.384,forced_choiceRT_color,2021.2.3,Win32,60.08171113,NA,NA,NA,NA,NA,NA,NA,1,Ontime,long,j,1,1.9832,1,3,7,2,1,NA,NA,NA,NA,NA,1983.2,216.60000000000002,1,j,j,1,1,225.50000000000003,j,j,1,memory_color_long,-0.5,-0.5,0.21660000000000001,TRUE,TRUE,TRUE,FALSE
NA,0.54,NA,NA,NA,NA,NA,NA,NA,NA,j,red,56d9ee15610fc00005b71979,2021-09-27_17h24.28.384,forced_choiceRT_color,2021.2.3,Win32,60.08171113,NA,NA,NA,NA,NA,NA,NA,1,Ontime,long,j,1,2.0676,2,0,8,2,1,NA,NA,NA,NA,NA,2067.6,763.8000000000001,1,j,j,1,1,216.60000000000002,j,j,1,memory_color_long,-0.5,-0.5,0.7638,TRUE,TRUE,TRUE,FALSE
NA,0.96,NA,NA,NA,NA,NA,NA,NA,NA,j,red,56d9ee15610fc00005b71979,2021-09-27_17h24.28.384,forced_choiceRT_color,2021.2.3,Win32,60.08171113,NA,NA,NA,NA,NA,NA,NA,1,Ontime,long,j,1,2.0181,2,2,10,2,1,NA,NA,NA,NA,NA,2018.1,529.0500000000001,1,j,j,1,1,523.9,f,f,1,memory_color_long,-0.5,-0.5,0.52905,FALSE,FALSE,FALSE,FALSE
NA,0.26,NA,NA,NA,NA,NA,NA,NA,NA,d,orange,56d9ee15610fc00005b71979,2021-09-27_17h24.28.384,forced_choiceRT_color,2021.2.3,Win32,60.08171113,NA,NA,NA,NA,NA,NA,NA,1,Ontime,long,d,1,2.0681,2,3,11,0,1,NA,NA,NA,NA,NA,2068.1,904.05,1,d,d,1,1,529.0500000000001,j,j,1,memory_color_long,-0.5,-0.5,0.9040499999999999,FALSE,FALSE,FALSE,FALSE
NA,0.94,NA,NA,NA,NA,NA,NA,NA,NA,k,purple,56d9ee15610fc00005b71979,2021-09-27_17h24.28.384,forced_choiceRT_color,2021.2.3,Win32,60.08171113,NA,NA,NA,NA,NA,NA,NA,1,Ontime,long,k,1,2.0344,3,1,13,3,1,NA,NA,NA,NA,NA,2034.4000000000003,547.2000000000002,1,k,k,1,1,339.05000000000007,k,k,1,memory_color_long,-0.5,-0.5,0.5472000000000001,TRUE,TRUE,TRUE,FALSE
NA,1.3,NA,NA,NA,NA,NA,NA,NA,NA,k,purple,56d9ee15610fc00005b71979,2021-09-27_17h24.28.384,forced_choiceRT_color,2021.2.3,Win32,60.08171113,NA,NA,NA,NA,NA,NA,NA,1,Ontime,long,k,1,2.0203,4,0,16,3,1,NA,NA,NA,NA,NA,2020.3000000000002,360.1500000000001,1,k,k,1,1,1010.1500000000001,k,k,1,memory_color_long,-0.5,-0.5,0.3601500000000001,TRUE,TRUE,TRUE,FALSE
NA,0.91,NA,NA,NA,NA,NA,NA,NA,NA,d,orange,56d9ee15610fc00005b71979,2021-09-27_17h24.28.384,forced_choiceRT_color,2021.2.3,Win32,60.08171113,NA,NA,NA,NA,NA,NA,NA,1,Ontime,long,d,1,2.0176,4,1,17,0,1,NA,NA,NA,NA,NA,2017.6,553.7999999999998,1,d,d,1,1,360.1500000000001,k,k,1,memory_color_long,-0.5,-0.5,0.5537999999999998,FALSE,FALSE,FALSE,FALSE
NA,0.63,NA,NA,NA,NA,NA,NA,NA,NA,d,orange,56d9ee15610fc00005b71979,2021-09-27_17h24.28.384,forced_choiceRT_color,2021.2.3,Win32,60.08171113,NA,NA,NA,NA,NA,NA,NA,1,Ontime,long,d,1,2.0012,4,3,19,0,1,NA,NA,NA,NA,NA,2001.1999999999998,685.6,1,d,d,1,1,372.09999999999985,d,d,1,memory_color_long,-0.5,-0.5,0.6856,TRUE,TRUE,TRUE,FALSE
NA,0.22,NA,NA,NA,NA,NA,NA,NA,NA,d,orange,56d9ee15610fc00005b71979,2021-09-27_17h24.28.384,forced_choiceRT_color,2021.2.3,Win32,60.08171113,NA,NA,NA,NA,NA,NA,NA,1,Ontime,long,d,1,2.0512,5,0,20,0,1,NA,NA,NA,NA,NA,2051.2000000000003,915.6000000000001,1,d,d,1,1,685.6,d,d,1,memory_color_long,-0.5,-0.5,0.9156000000000002,TRUE,TRUE,TRUE,FALSE
NA,1.1,NA,NA,NA,NA,NA,NA,NA,NA,d,orange,56d9ee15610fc00005b71979,2021-09-27_17h24.28.384,forced_choiceRT_color,2021.2.3,Win32,60.08171113,NA,NA,NA,NA,NA,NA,NA,1,Ontime,long,d,1,2.0345,5,1,21,0,1,NA,NA,NA,NA,NA,2034.5,467.24999999999994,1,d,d,1,1,915.6000000000001,d,d,1,memory_color_long,-0.5,-0.5,0.46724999999999994,TRUE,TRUE,TRUE,FALSE
NA,0.1,NA,NA,NA,NA,NA,NA,NA,NA,k,purple,56d9ee15610fc00005b71979,2021-09-27_17h24.28.384,forced_choiceRT_color,2021.2.3,Win32,60.08171113,NA,NA,NA,NA,NA,NA,NA,1,Ontime,long,k,1,1.9511,5,3,23,3,1,NA,NA,NA,NA,NA,1951.1000000000001,925.55,1,k,k,1,1,430.4500000000001,j,j,1,memory_color_long,-0.5,-0.5,0.92555,FALSE,FALSE,FALSE,FALSE
NA,0.34,NA,NA,NA,NA,NA,NA,NA,NA,k,purple,56d9ee15610fc00005b71979,2021-09-27_17h24.28.384,forced_choiceRT_color,2021.2.3,Win32,60.08171113,NA,NA,NA,NA,NA,NA,NA,1,Ontime,long,k,1,2.0846,6,0,24,3,1,NA,NA,NA,NA,NA,2084.6,872.3,1,k,k,1,1,925.55,k,k,1,memory_color_long,-0.5,-0.5,0.8723,TRUE,TRUE,TRUE,FALSE
NA,0.68,NA,NA,NA,NA,NA,NA,NA,NA,f,blue,56d9ee15610fc00005b71979,2021-09-27_17h24.28.384,forced_choiceRT_color,2021.2.3,Win32,60.08171113,NA,NA,NA,NA,NA,NA,NA,1,Ontime,long,f,1,2.0343,6,1,25,1,1,NA,NA,NA,NA,NA,2034.3,677.1499999999999,1,f,f,1,1,872.3,k,k,1,memory_color_long,-0.5,-0.5,0.6771499999999999,FALSE,FALSE,FALSE,FALSE
NA,0.27,NA,NA,NA,NA,NA,NA,NA,NA,j,red,56d9ee15610fc00005b71979,2021-09-27_17h24.28.384,forced_choiceRT_color,2021.2.3,Win32,60.08171113,NA,NA,NA,NA,NA,NA,NA,1,Ontime,long,j,1,1.9844,6,2,26,2,1,NA,NA,NA,NA,NA,1984.3999999999999,857.1999999999999,1,j,j,1,1,677.1499999999999,f,f,1,memory_color_long,-0.5,-0.5,0.8572,FALSE,FALSE,FALSE,FALSE
NA,0.72,NA,NA,NA,NA,NA,NA,NA,NA,f,blue,56d9ee15610fc00005b71979,2021-09-27_17h24.28.384,forced_choiceRT_color,2021.2.3,Win32,60.08171113,NA,NA,NA,NA,NA,NA,NA,1,Ontime,long,j,0,2.0013,6,3,27,1,1,NA,NA,NA,NA,NA,2001.3000000000002,640.6500000000001,0,j,f,1,1,857.1999999999999,j,j,0,memory_color_long,-0.5,-0.5,0.64065,TRUE,FALSE,FALSE,FALSE
NA,0.72,NA,NA,NA,NA,NA,NA,NA,NA,j,red,56d9ee15610fc00005b71979,2021-09-27_17h24.28.384,forced_choiceRT_color,2021.2.3,Win32,60.08171113,NA,NA,NA,NA,NA,NA,NA,1,Ontime,long,j,1,2.0691,7,0,28,2,1,NA,NA,NA,NA,NA,2069.1000000000004,674.5500000000001,1,j,j,1,0,640.6500000000001,j,f,1,memory_color_long,-0.5,0.5,0.6745500000000001,TRUE,FALSE,TRUE,FALSE
NA,0.73,NA,NA,NA,NA,NA,NA,NA,NA,f,blue,56d9ee15610fc00005b71979,2021-09-27_17h24.28.384,forced_choiceRT_color,2021.2.3,Win32,60.08171113,NA,NA,NA,NA,NA,NA,NA,1,Ontime,long,f,1,2.051,7,1,29,1,1,NA,NA,NA,NA,NA,2051,660.5000000000001,1,f,f,0,1,674.5500000000001,j,j,1,memory_color_long,0.5,-0.5,0.6605000000000001,FALSE,FALSE,FALSE,FALSE
NA,0.62,NA,NA,NA,NA,NA,NA,NA,NA,d,orange,56d9ee15610fc00005b71979,2021-09-27_17h24.28.384,forced_choiceRT_color,2021.2.3,Win32,60.08171113,NA,NA,NA,NA,NA,NA,NA,1,Ontime,long,d,1,1.9677,7,3,31,0,1,NA,NA,NA,NA,NA,1967.7,673.85,1,d,d,1,1,178.40000000000012,f,f,1,memory_color_long,-0.5,-0.5,0.6738500000000001,FALSE,FALSE,FALSE,FALSE
NA,0.69,NA,NA,NA,NA,NA,NA,NA,NA,k,purple,56d9ee15610fc00005b71979,2021-09-27_17h24.28.384,forced_choiceRT_color,2021.2.3,Win32,60.08171113,NA,NA,NA,NA,NA,NA,NA,1,Ontime,long,k,1,2.0185,8,0,32,3,1,NA,NA,NA,NA,NA,2018.5,664.25,1,k,k,1,1,673.85,d,d,1,memory_color_long,-0.5,-0.5,0.66425,FALSE,FALSE,FALSE,FALSE
NA,1.18,NA,NA,NA,NA,NA,NA,NA,NA,k,purple,56d9ee15610fc00005b71979,2021-09-27_17h24.28.384,forced_choiceRT_color,2021.2.3,Win32,60.08171113,NA,NA,NA,NA,NA,NA,NA,1,Ontime,long,k,1,2.0512,8,1,33,3,1,NA,NA,NA,NA,NA,2051.2000000000003,435.6000000000001,1,k,k,1,1,664.25,k,k,1,memory_color_long,-0.5,-0.5,0.4356000000000001,TRUE,TRUE,TRUE,FALSE
NA,1.32,NA,NA,NA,NA,NA,NA,NA,NA,j,red,56d9ee15610fc00005b71979,2021-09-27_17h24.28.384,forced_choiceRT_color,2021.2.3,Win32,60.08171113,NA,NA,NA,NA,NA,NA,NA,1,Ontime,long,j,1,2.0552,8,3,35,2,1,NA,NA,NA,NA,NA,2055.2000000000003,367.6,1,j,j,1,0,310.4500000000001,j,f,1,memory_color_long,-0.5,0.5,0.36760000000000004,TRUE,FALSE,TRUE,FALSE
NA,0.97,NA,NA,NA,NA,NA,NA,NA,NA,d,orange,56d9ee15610fc00005b71979,2021-09-27_17h24.28.384,forced_choiceRT_color,2021.2.3,Win32,60.08171113,NA,NA,NA,NA,NA,NA,NA,1,Ontime,long,d,1,2.0346,9,0,36,0,1,NA,NA,NA,NA,NA,2034.6000000000001,532.3000000000001,1,d,d,0,1,367.6,j,j,1,memory_color_long,0.5,-0.5,0.5323000000000001,FALSE,FALSE,FALSE,FALSE
NA,1.25,NA,NA,NA,NA,NA,NA,NA,NA,j,red,56d9ee15610fc00005b71979,2021-09-27_17h24.28.384,forced_choiceRT_color,2021.2.3,Win32,60.08171113,NA,NA,NA,NA,NA,NA,NA,1,Ontime,long,j,1,2.0178,9,1,37,2,1,NA,NA,NA,NA,NA,2017.7999999999997,383.8999999999999,1,j,j,1,1,532.3000000000001,d,d,1,memory_color_long,-0.5,-0.5,0.3838999999999999,FALSE,FALSE,FALSE,FALSE
NA,0.64,NA,NA,NA,NA,NA,NA,NA,NA,f,blue,56d9ee15610fc00005b71979,2021-09-27_17h24.28.384,forced_choiceRT_color,2021.2.3,Win32,60.08171113,NA,NA,NA,NA,NA,NA,NA,1,Ontime,long,f,1,2.0514,9,2,38,1,1,NA,NA,NA,NA,NA,2051.4,705.7,1,f,f,1,1,383.8999999999999,j,j,1,memory_color_long,-0.5,-0.5,0.7057,FALSE,FALSE,FALSE,FALSE
NA,1.25,NA,NA,NA,NA,NA,NA,NA,NA,d,orange,56d9ee15610fc00005b71979,2021-09-27_17h24.28.384,forced_choiceRT_color,2021.2.3,Win32,60.08171113,NA,NA,NA,NA,NA,NA,NA,2,Ontime,long,d,1,2.0178,0,2,2,0,1,NA,NA,NA,NA,NA,2017.7999999999997,383.8999999999999,1,d,d,0,1,217.25000000000006,d,d,1,memory_color_long,0.5,-0.5,0.3838999999999999,TRUE,TRUE,TRUE,FALSE
NA,0.01,NA,NA,NA,NA,NA,NA,NA,NA,j,red,56d9ee15610fc00005b71979,2021-09-27_17h24.28.384,forced_choiceRT_color,2021.2.3,Win32,60.08171113,NA,NA,NA,NA,NA,NA,NA,2,Ontime,long,j,1,2.0013,0,3,3,2,1,NA,NA,NA,NA,NA,2001.3000000000002,995.6500000000001,1,j,j,1,1,383.8999999999999,d,d,1,memory_color_long,-0.5,-0.5,0.9956500000000001,FALSE,FALSE,FALSE,FALSE
NA,1.11,NA,NA,NA,NA,NA,NA,NA,NA,k,purple,56d9ee15610fc00005b71979,2021-09-27_17h24.28.384,forced_choiceRT_color,2021.2.3,Win32,60.08171113,NA,NA,NA,NA,NA,NA,NA,2,Ontime,long,k,1,2.0441,1,1,5,3,1,NA,NA,NA,NA,NA,2044.1,467.04999999999984,1,k,k,1,1,125.15000000000009,k,k,1,memory_color_long,-0.5,-0.5,0.46704999999999985,TRUE,TRUE,TRUE,FALSE
NA,0.16,NA,NA,NA,NA,NA,NA,NA,NA,d,orange,56d9ee15610fc00005b71979,2021-09-27_17h24.28.384,forced_choiceRT_color,2021.2.3,Win32,60.08171113,NA,NA,NA,NA,NA,NA,NA,2,Ontime,long,d,1,2.0346,1,2,6,0,1,NA,NA,NA,NA,NA,2034.6000000000001,937.3000000000002,1,d,d,1,1,467.04999999999984,k,k,1,memory_color_long,-0.5,-0.5,0.9373000000000001,FALSE,FALSE,FALSE,FALSE
NA,0.25,NA,NA,NA,NA,NA,NA,NA,NA,d,orange,56d9ee15610fc00005b71979,2021-09-27_17h24.28.384,forced_choiceRT_color,2021.2.3,Win32,60.08171113,NA,NA,NA,NA,NA,NA,NA,2,Ontime,long,d,1,2.0179,2,0,8,0,1,NA,NA,NA,NA,NA,2017.9,883.95,1,d,d,1,0,290.5,j,f,1,memory_color_long,-0.5,0.5,0.88395,FALSE,FALSE,FALSE,FALSE
NA,0.32,NA,NA,NA,NA,NA,NA,NA,NA,j,red,56d9ee15610fc00005b71979,2021-09-27_17h24.28.384,forced_choiceRT_color,2021.2.3,Win32,60.08171113,NA,NA,NA,NA,NA,NA,NA,2,Ontime,long,j,1,1.9179,2,2,10,2,1,NA,NA,NA,NA,NA,1917.8999999999999,798.9499999999999,1,j,j,1,0,204.00000000000006,j,k,1,memory_color_long,-0.5,0.5,0.7989499999999999,TRUE,FALSE,TRUE,FALSE
NA,1.13,NA,NA,NA,NA,NA,NA,NA,NA,f,blue,56d9ee15610fc00005b71979,2021-09-27_17h24.28.384,forced_choiceRT_color,2021.2.3,Win32,60.08171113,NA,NA,NA,NA,NA,NA,NA,2,Ontime,long,f,1,2.0331,3,1,13,1,1,NA,NA,NA,NA,NA,2033.1000000000001,451.5500000000001,1,f,f,1,1,152.0999999999999,k,k,1,memory_color_long,-0.5,-0.5,0.4515500000000001,FALSE,FALSE,FALSE,FALSE
NA,0.36,NA,NA,NA,NA,NA,NA,NA,NA,k,purple,56d9ee15610fc00005b71979,2021-09-27_17h24.28.384,forced_choiceRT_color,2021.2.3,Win32,60.08171113,NA,NA,NA,NA,NA,NA,NA,2,Ontime,long,k,1,1.9846,4,0,16,3,1,NA,NA,NA,NA,NA,1984.6,812.3000000000001,1,k,k,1,1,292.15000000000015,d,d,1,memory_color_long,-0.5,-0.5,0.8123,FALSE,FALSE,FALSE,FALSE
NA,0.27,NA,NA,NA,NA,NA,NA,NA,NA,j,red,56d9ee15610fc00005b71979,2021-09-27_17h24.28.384,forced_choiceRT_color,2021.2.3,Win32,60.08171113,NA,NA,NA,NA,NA,NA,NA,2,Ontime,long,j,1,2.0009,4,2,18,2,1,NA,NA,NA,NA,NA,2000.9,865.45,1,j,j,1,1,435.59999999999985,d,d,1,memory_color_long,-0.5,-0.5,0.86545,FALSE,FALSE,FALSE,FALSE
NA,0.18,NA,NA,NA,NA,NA,NA,NA,NA,f,blue,56d9ee15610fc00005b71979,2021-09-27_17h24.28.384,forced_choiceRT_color,2021.2.3,Win32,60.08171113,NA,NA,NA,NA,NA,NA,NA,2,Ontime,long,f,1,2.0512,5,0,20,1,1,NA,NA,NA,NA,NA,2051.2000000000003,935.6000000000001,1,f,f,1,0,272.1,f,d,1,memory_color_long,-0.5,0.5,0.9356000000000001,TRUE,FALSE,TRUE,FALSE
NA,0.64,NA,NA,NA,NA,NA,NA,NA,NA,j,red,56d9ee15610fc00005b71979,2021-09-27_17h24.28.384,forced_choiceRT_color,2021.2.3,Win32,60.08171113,NA,NA,NA,NA,NA,NA,NA,2,Ontime,long,j,1,2.0343,5,1,21,2,1,NA,NA,NA,NA,NA,2034.3,697.15,1,j,j,0,1,935.6000000000001,f,f,1,memory_color_long,0.5,-0.5,0.6971499999999999,FALSE,FALSE,FALSE,FALSE
NA,1.14,NA,NA,NA,NA,NA,NA,NA,NA,f,blue,56d9ee15610fc00005b71979,2021-09-27_17h24.28.384,forced_choiceRT_color,2021.2.3,Win32,60.08171113,NA,NA,NA,NA,NA,NA,NA,2,Ontime,long,f,1,2.0542,5,3,23,1,1,NA,NA,NA,NA,NA,2054.2,457.09999999999997,1,f,f,1,1,380.54999999999995,k,k,1,memory_color_long,-0.5,-0.5,0.45709999999999995,FALSE,FALSE,FALSE,FALSE
NA,0.94,NA,NA,NA,NA,NA,NA,NA,NA,f,blue,56d9ee15610fc00005b71979,2021-09-27_17h24.28.384,forced_choiceRT_color,2021.2.3,Win32,60.08171113,NA,NA,NA,NA,NA,NA,NA,2,Ontime,long,f,1,1.9344,6,0,24,1,1,NA,NA,NA,NA,NA,1934.3999999999999,497.2,1,f,f,1,1,457.09999999999997,f,f,1,memory_color_long,-0.5,-0.5,0.4972,TRUE,TRUE,TRUE,FALSE
NA,0.41,NA,NA,NA,NA,NA,NA,NA,NA,k,purple,56d9ee15610fc00005b71979,2021-09-27_17h24.28.384,forced_choiceRT_color,2021.2.3,Win32,60.08171113,NA,NA,NA,NA,NA,NA,NA,2,Ontime,long,k,1,1.9844,6,3,27,3,1,NA,NA,NA,NA,NA,1984.3999999999999,787.2,1,k,k,1,0,212.09999999999997,k,j,1,memory_color_long,-0.5,0.5,0.7872,TRUE,FALSE,TRUE,FALSE
NA,0,NA,NA,NA,NA,NA,NA,NA,NA,d,orange,56d9ee15610fc00005b71979,2021-09-27_17h24.28.384,forced_choiceRT_color,2021.2.3,Win32,60.08171113,NA,NA,NA,NA,NA,NA,NA,2,Ontime,long,d,1,1.9866,7,0,28,0,1,NA,NA,NA,NA,NA,1986.6,993.3,1,d,d,0,1,787.2,k,k,1,memory_color_long,0.5,-0.5,0.9933,FALSE,FALSE,FALSE,FALSE
NA,0.58,NA,NA,NA,NA,NA,NA,NA,NA,j,red,56d9ee15610fc00005b71979,2021-09-27_17h24.28.384,forced_choiceRT_color,2021.2.3,Win32,60.08171113,NA,NA,NA,NA,NA,NA,NA,2,Ontime,long,j,1,1.9844,7,2,30,2,1,NA,NA,NA,NA,NA,1984.3999999999999,702.1999999999999,1,j,j,1,0,110.70000000000013,k,f,1,memory_color_long,-0.5,0.5,0.7021999999999999,FALSE,FALSE,FALSE,FALSE
NA,0.19,NA,NA,NA,NA,NA,NA,NA,NA,j,red,56d9ee15610fc00005b71979,2021-09-27_17h24.28.384,forced_choiceRT_color,2021.2.3,Win32,60.08171113,NA,NA,NA,NA,NA,NA,NA,2,Ontime,long,j,1,2.0845,7,3,31,2,1,NA,NA,NA,NA,NA,2084.5,947.2499999999999,1,j,j,0,1,702.1999999999999,j,j,1,memory_color_long,0.5,-0.5,0.9472499999999999,TRUE,TRUE,TRUE,FALSE
NA,0.53,NA,NA,NA,NA,NA,NA,NA,NA,f,blue,56d9ee15610fc00005b71979,2021-09-27_17h24.28.384,forced_choiceRT_color,2021.2.3,Win32,60.08171113,NA,NA,NA,NA,NA,NA,NA,2,Ontime,long,f,1,1.9341,8,0,32,1,1,NA,NA,NA,NA,NA,1934.1,702.05,1,f,f,1,1,947.2499999999999,j,j,1,memory_color_long,-0.5,-0.5,0.70205,FALSE,FALSE,FALSE,FALSE
NA,0.75,NA,NA,NA,NA,NA,NA,NA,NA,j,red,56d9ee15610fc00005b71979,2021-09-27_17h24.28.384,forced_choiceRT_color,2021.2.3,Win32,60.08171113,NA,NA,NA,NA,NA,NA,NA,2,Ontime,long,j,1,2.0011,8,2,34,2,1,NA,NA,NA,NA,NA,2001.1000000000001,625.5500000000001,1,j,j,1,1,363.70000000000005,k,k,1,memory_color_long,-0.5,-0.5,0.62555,FALSE,FALSE,FALSE,FALSE
NA,0.68,NA,NA,NA,NA,NA,NA,NA,NA,d,orange,56d9ee15610fc00005b71979,2021-09-27_17h24.28.384,forced_choiceRT_color,2021.2.3,Win32,60.08171113,NA,NA,NA,NA,NA,NA,NA,2,Ontime,long,d,1,1.9515,8,3,35,0,1,NA,NA,NA,NA,NA,1951.5,635.75,1,d,d,1,1,625.5500000000001,j,j,1,memory_color_long,-0.5,-0.5,0.63575,FALSE,FALSE,FALSE,FALSE
NA,0.7,NA,NA,NA,NA,NA,NA,NA,NA,j,red,56d9ee15610fc00005b71979,2021-09-27_17h24.28.384,forced_choiceRT_color,2021.2.3,Win32,60.08171113,NA,NA,NA,NA,NA,NA,NA,2,Ontime,long,j,1,1.9511,9,1,37,2,1,NA,NA,NA,NA,NA,1951.1000000000001,625.5500000000001,1,j,j,1,1,375.75,f,f,1,memory_color_long,-0.5,-0.5,0.62555,FALSE,FALSE,FALSE,FALSE
NA,1.11,NA,NA,NA,NA,NA,NA,NA,NA,k,purple,56d9ee15610fc00005b71979,2021-09-27_17h24.28.384,forced_choiceRT_color,2021.2.3,Win32,60.08171113,NA,NA,NA,NA,NA,NA,NA,2,Ontime,long,k,1,2.0177,9,2,38,3,1,NA,NA,NA,NA,NA,2017.7,453.84999999999997,1,k,k,1,1,625.5500000000001,j,j,1,memory_color_long,-0.5,-0.5,0.45385,FALSE,FALSE,FALSE,FALSE
NA,0.72,NA,NA,NA,NA,NA,NA,NA,NA,k,purple,56d9ee15610fc00005b71979,2021-09-27_17h24.28.384,forced_choiceRT_color,2021.2.3,Win32,60.08171113,NA,NA,NA,NA,NA,NA,NA,2,Ontime,long,k,1,1.9368,9,3,39,3,1,NA,NA,NA,NA,NA,1936.8000000000002,608.4000000000001,1,k,k,1,1,453.84999999999997,k,k,1,memory_color_long,-0.5,-0.5,0.6084,TRUE,TRUE,TRUE,FALSE
NA,0.54,NA,NA,NA,NA,NA,NA,NA,NA,d,orange,56d9ee15610fc00005b71979,2021-09-27_17h24.28.384,forced_choiceRT_color,2021.2.3,Win32,60.08171113,NA,NA,NA,NA,NA,NA,NA,3,Ontime,long,d,1,2.0063,0,0,0,0,1,NA,NA,NA,NA,NA,2006.3,733.15,1,d,d,1,1,608.4000000000001,k,k,1,memory_color_long,-0.5,-0.5,0.73315,FALSE,FALSE,FALSE,FALSE
NA,1.4,NA,NA,NA,NA,NA,NA,NA,NA,j,red,56d9ee15610fc00005b71979,2021-09-27_17h24.28.384,forced_choiceRT_color,2021.2.3,Win32,60.08171113,NA,NA,NA,NA,NA,NA,NA,3,Ontime,long,j,1,2.0497,0,2,2,2,1,NA,NA,NA,NA,NA,2049.7000000000003,324.8500000000001,1,j,j,1,0,209.65000000000012,j,k,1,memory_color_long,-0.5,0.5,0.3248500000000001,TRUE,FALSE,TRUE,FALSE
NA,1.61,NA,NA,NA,NA,NA,NA,NA,NA,j,red,56d9ee15610fc00005b71979,2021-09-27_17h24.28.384,forced_choiceRT_color,2021.2.3,Win32,60.08171113,NA,NA,NA,NA,NA,NA,NA,3,Ontime,long,f,0,2.0664,1,0,4,2,1,NA,NA,NA,NA,NA,2066.3999999999996,228.19999999999985,0,f,j,1,1,356.24999999999994,k,k,0,memory_color_long,-0.5,-0.5,0.22819999999999985,FALSE,FALSE,FALSE,FALSE
NA,0.86,NA,NA,NA,NA,NA,NA,NA,NA,k,purple,56d9ee15610fc00005b71979,2021-09-27_17h24.28.384,forced_choiceRT_color,2021.2.3,Win32,60.08171113,NA,NA,NA,NA,NA,NA,NA,3,Ontime,long,k,1,1.9501,1,3,7,3,1,NA,NA,NA,NA,NA,1950.1,545.0500000000001,1,k,k,1,1,249.14999999999998,d,d,1,memory_color_long,-0.5,-0.5,0.54505,FALSE,FALSE,FALSE,FALSE
NA,1.67,NA,NA,NA,NA,NA,NA,NA,NA,d,orange,56d9ee15610fc00005b71979,2021-09-27_17h24.28.384,forced_choiceRT_color,2021.2.3,Win32,60.08171113,NA,NA,NA,NA,NA,NA,NA,3,Ontime,long,d,1,1.9664,2,1,9,0,1,NA,NA,NA,NA,NA,1966.3999999999999,148.2,1,d,d,1,1,609.3,f,f,1,memory_color_long,-0.5,-0.5,0.1482,FALSE,FALSE,FALSE,FALSE
NA,0.13,NA,NA,NA,NA,NA,NA,NA,NA,k,purple,56d9ee15610fc00005b71979,2021-09-27_17h24.28.384,forced_choiceRT_color,2021.2.3,Win32,60.08171113,NA,NA,NA,NA,NA,NA,NA,3,Ontime,long,k,1,1.9745,2,2,10,3,1,NA,NA,NA,NA,NA,1974.5,922.25,1,k,k,1,1,148.2,d,d,1,memory_color_long,-0.5,-0.5,0.92225,FALSE,FALSE,FALSE,FALSE
NA,0.52,NA,NA,NA,NA,NA,NA,NA,NA,d,orange,56d9ee15610fc00005b71979,2021-09-27_17h24.28.384,forced_choiceRT_color,2021.2.3,Win32,60.08171113,NA,NA,NA,NA,NA,NA,NA,3,Ontime,long,d,1,2.0661,2,3,11,0,1,NA,NA,NA,NA,NA,2066.1,773.0500000000001,1,d,d,1,1,922.25,k,k,1,memory_color_long,-0.5,-0.5,0.77305,FALSE,FALSE,FALSE,FALSE
NA,1.22,NA,NA,NA,NA,NA,NA,NA,NA,j,red,56d9ee15610fc00005b71979,2021-09-27_17h24.28.384,forced_choiceRT_color,2021.2.3,Win32,60.08171113,NA,NA,NA,NA,NA,NA,NA,3,Ontime,long,f,0,1.9829,3,0,12,2,1,NA,NA,NA,NA,NA,1982.9,381.45000000000005,0,f,j,1,1,773.0500000000001,d,d,0,memory_color_long,-0.5,-0.5,0.38145000000000007,FALSE,FALSE,FALSE,FALSE
NA,1.31,NA,NA,NA,NA,NA,NA,NA,NA,d,orange,56d9ee15610fc00005b71979,2021-09-27_17h24.28.384,forced_choiceRT_color,2021.2.3,Win32,60.08171113,NA,NA,NA,NA,NA,NA,NA,3,Ontime,long,d,1,2.05,3,1,13,0,1,NA,NA,NA,NA,NA,2050,369.9999999999999,1,d,d,1,0,381.45000000000005,f,j,1,memory_color_long,-0.5,0.5,0.3699999999999999,FALSE,FALSE,FALSE,FALSE
NA,0.98,NA,NA,NA,NA,NA,NA,NA,NA,k,purple,56d9ee15610fc00005b71979,2021-09-27_17h24.28.384,forced_choiceRT_color,2021.2.3,Win32,60.08171113,NA,NA,NA,NA,NA,NA,NA,3,Ontime,long,k,1,1.9662,3,2,14,3,1,NA,NA,NA,NA,NA,1966.2,493.09999999999997,1,k,k,0,1,369.9999999999999,d,d,1,memory_color_long,0.5,-0.5,0.4931,FALSE,FALSE,FALSE,FALSE
NA,0.11,NA,NA,NA,NA,NA,NA,NA,NA,k,purple,56d9ee15610fc00005b71979,2021-09-27_17h24.28.384,forced_choiceRT_color,2021.2.3,Win32,60.08171113,NA,NA,NA,NA,NA,NA,NA,3,Ontime,long,k,1,1.9813,4,1,17,3,1,NA,NA,NA,NA,NA,1981.3,935.65,1,k,k,0,0,250.04999999999998,j,k,1,memory_color_long,0.5,0.5,0.93565,FALSE,TRUE,FALSE,FALSE
NA,1.42,NA,NA,NA,NA,NA,NA,NA,NA,f,blue,56d9ee15610fc00005b71979,2021-09-27_17h24.28.384,forced_choiceRT_color,2021.2.3,Win32,60.08171113,NA,NA,NA,NA,NA,NA,NA,3,Ontime,long,f,1,2.0166,4,2,18,1,1,NA,NA,NA,NA,NA,2016.6,298.3,1,f,f,0,1,935.65,k,k,1,memory_color_long,0.5,-0.5,0.2983,FALSE,FALSE,FALSE,FALSE
NA,0.85,NA,NA,NA,NA,NA,NA,NA,NA,d,orange,56d9ee15610fc00005b71979,2021-09-27_17h24.28.384,forced_choiceRT_color,2021.2.3,Win32,60.08171113,NA,NA,NA,NA,NA,NA,NA,3,Ontime,long,d,1,2.0002,4,3,19,0,1,NA,NA,NA,NA,NA,2000.2,575.0999999999999,1,d,d,1,1,298.3,f,f,1,memory_color_long,-0.5,-0.5,0.5751,FALSE,FALSE,FALSE,FALSE
NA,0.73,NA,NA,NA,NA,NA,NA,NA,NA,j,red,56d9ee15610fc00005b71979,2021-09-27_17h24.28.384,forced_choiceRT_color,2021.2.3,Win32,60.08171113,NA,NA,NA,NA,NA,NA,NA,3,Ontime,long,j,1,2.0381,5,1,21,2,1,NA,NA,NA,NA,NA,2038.1,654.0500000000001,1,j,j,1,1,241.6999999999999,k,k,1,memory_color_long,-0.5,-0.5,0.65405,FALSE,FALSE,FALSE,FALSE
NA,0.06,NA,NA,NA,NA,NA,NA,NA,NA,j,red,56d9ee15610fc00005b71979,2021-09-27_17h24.28.384,forced_choiceRT_color,2021.2.3,Win32,60.08171113,NA,NA,NA,NA,NA,NA,NA,3,Ontime,long,j,1,2.0006,5,2,22,2,1,NA,NA,NA,NA,NA,2000.6,970.3,1,j,j,1,1,654.0500000000001,j,j,1,memory_color_long,-0.5,-0.5,0.9702999999999999,TRUE,TRUE,TRUE,FALSE
NA,1.44,NA,NA,NA,NA,NA,NA,NA,NA,f,blue,56d9ee15610fc00005b71979,2021-09-27_17h24.28.384,forced_choiceRT_color,2021.2.3,Win32,60.08171113,NA,NA,NA,NA,NA,NA,NA,3,Ontime,long,f,1,2.0168,5,3,23,1,1,NA,NA,NA,NA,NA,2016.8,288.4,1,f,f,1,1,970.3,j,j,1,memory_color_long,-0.5,-0.5,0.2884,FALSE,FALSE,FALSE,FALSE
NA,0.32,NA,NA,NA,NA,NA,NA,NA,NA,j,red,56d9ee15610fc00005b71979,2021-09-27_17h24.28.384,forced_choiceRT_color,2021.2.3,Win32,60.08171113,NA,NA,NA,NA,NA,NA,NA,3,Ontime,long,j,1,2.0503,6,0,24,2,1,NA,NA,NA,NA,NA,2050.3,865.15,1,j,j,1,1,288.4,f,f,1,memory_color_long,-0.5,-0.5,0.86515,FALSE,FALSE,FALSE,FALSE
NA,0.85,NA,NA,NA,NA,NA,NA,NA,NA,f,blue,56d9ee15610fc00005b71979,2021-09-27_17h24.28.384,forced_choiceRT_color,2021.2.3,Win32,60.08171113,NA,NA,NA,NA,NA,NA,NA,3,Ontime,long,f,1,2.0208,6,2,26,1,1,NA,NA,NA,NA,NA,2020.8,585.3999999999999,1,f,f,1,1,238.10000000000008,j,j,1,memory_color_long,-0.5,-0.5,0.5853999999999998,FALSE,FALSE,FALSE,FALSE
NA,0.07,NA,NA,NA,NA,NA,NA,NA,NA,f,blue,56d9ee15610fc00005b71979,2021-09-27_17h24.28.384,forced_choiceRT_color,2021.2.3,Win32,60.08171113,NA,NA,NA,NA,NA,NA,NA,3,Ontime,long,f,1,2.0207,6,3,27,1,1,NA,NA,NA,NA,NA,2020.7000000000003,975.35,1,f,f,1,1,585.3999999999999,f,f,1,memory_color_long,-0.5,-0.5,0.97535,TRUE,TRUE,TRUE,FALSE
NA,0.11,NA,NA,NA,NA,NA,NA,NA,NA,d,orange,56d9ee15610fc00005b71979,2021-09-27_17h24.28.384,forced_choiceRT_color,2021.2.3,Win32,60.08171113,NA,NA,NA,NA,NA,NA,NA,3,Ontime,long,d,1,2.0935,7,0,28,0,1,NA,NA,NA,NA,NA,2093.5,991.75,1,d,d,1,1,975.35,f,f,1,memory_color_long,-0.5,-0.5,0.99175,FALSE,FALSE,FALSE,FALSE
NA,0.27,NA,NA,NA,NA,NA,NA,NA,NA,k,purple,56d9ee15610fc00005b71979,2021-09-27_17h24.28.384,forced_choiceRT_color,2021.2.3,Win32,60.08171113,NA,NA,NA,NA,NA,NA,NA,3,Ontime,long,k,1,2.0328,7,2,30,3,1,NA,NA,NA,NA,NA,2032.8,881.4,1,k,k,1,0,136.1,j,d,1,memory_color_long,-0.5,0.5,0.8814,FALSE,FALSE,FALSE,FALSE
NA,1.01,NA,NA,NA,NA,NA,NA,NA,NA,f,blue,56d9ee15610fc00005b71979,2021-09-27_17h24.28.384,forced_choiceRT_color,2021.2.3,Win32,60.08171113,NA,NA,NA,NA,NA,NA,NA,3,Ontime,long,f,1,1.9665,7,3,31,1,1,NA,NA,NA,NA,NA,1966.5,478.24999999999994,1,f,f,0,1,881.4,k,k,1,memory_color_long,0.5,-0.5,0.47824999999999995,FALSE,FALSE,FALSE,FALSE
NA,0.02,NA,NA,NA,NA,NA,NA,NA,NA,f,blue,56d9ee15610fc00005b71979,2021-09-27_17h24.28.384,forced_choiceRT_color,2021.2.3,Win32,60.08171113,NA,NA,NA,NA,NA,NA,NA,3,Ontime,long,f,1,2.0179,8,0,32,1,1,NA,NA,NA,NA,NA,2017.9,998.95,1,f,f,1,1,478.24999999999994,f,f,1,memory_color_long,-0.5,-0.5,0.99895,TRUE,TRUE,TRUE,FALSE
NA,0.8,NA,NA,NA,NA,NA,NA,NA,NA,k,purple,56d9ee15610fc00005b71979,2021-09-27_17h24.28.384,forced_choiceRT_color,2021.2.3,Win32,60.08171113,NA,NA,NA,NA,NA,NA,NA,3,Ontime,long,k,1,2.0737,8,1,33,3,1,NA,NA,NA,NA,NA,2073.7000000000003,636.85,1,k,k,1,1,998.95,f,f,1,memory_color_long,-0.5,-0.5,0.63685,FALSE,FALSE,FALSE,FALSE
NA,1.04,NA,NA,NA,NA,NA,NA,NA,NA,j,red,56d9ee15610fc00005b71979,2021-09-27_17h24.28.384,forced_choiceRT_color,2021.2.3,Win32,60.08171113,NA,NA,NA,NA,NA,NA,NA,3,Ontime,long,f,0,1.9996,8,2,34,2,1,NA,NA,NA,NA,NA,1999.6000000000001,479.8,0,f,j,1,1,636.85,k,k,0,memory_color_long,-0.5,-0.5,0.4798,FALSE,FALSE,FALSE,FALSE
NA,0.93,NA,NA,NA,NA,NA,NA,NA,NA,d,orange,56d9ee15610fc00005b71979,2021-09-27_17h24.28.384,forced_choiceRT_color,2021.2.3,Win32,60.08171113,NA,NA,NA,NA,NA,NA,NA,3,Ontime,long,d,1,2.0331,8,3,35,0,1,NA,NA,NA,NA,NA,2033.1000000000001,551.55,1,d,d,1,0,479.8,f,j,1,memory_color_long,-0.5,0.5,0.55155,FALSE,FALSE,FALSE,FALSE
NA,0.23,NA,NA,NA,NA,NA,NA,NA,NA,f,blue,56d9ee15610fc00005b71979,2021-09-27_17h24.28.384,forced_choiceRT_color,2021.2.3,Win32,60.08171113,NA,NA,NA,NA,NA,NA,NA,3,Ontime,long,f,1,2.0497,9,0,36,1,1,NA,NA,NA,NA,NA,2049.7000000000003,909.85,1,f,f,0,1,551.55,d,d,1,memory_color_long,0.5,-0.5,0.90985,FALSE,FALSE,FALSE,FALSE
NA,1.07,NA,NA,NA,NA,NA,NA,NA,NA,d,orange,56d9ee15610fc00005b71979,2021-09-27_17h24.28.384,forced_choiceRT_color,2021.2.3,Win32,60.08171113,NA,NA,NA,NA,NA,NA,NA,3,Ontime,long,d,1,2.0242,9,1,37,0,1,NA,NA,NA,NA,NA,2024.2,477.09999999999997,1,d,d,1,1,909.85,f,f,1,memory_color_long,-0.5,-0.5,0.47709999999999997,FALSE,FALSE,FALSE,FALSE
NA,1.88,NA,NA,NA,NA,NA,NA,NA,NA,f,blue,56d9ee15610fc00005b71979,2021-09-27_17h24.28.384,forced_choiceRT_color,2021.2.3,Win32,60.08171113,NA,NA,NA,NA,NA,NA,NA,3,Ontime,long,f,1,2.0661,9,2,38,1,1,NA,NA,NA,NA,NA,2066.1,93.05000000000008,1,f,f,1,1,477.09999999999997,d,d,1,memory_color_long,-0.5,-0.5,0.09305000000000008,FALSE,FALSE,FALSE,FALSE
NA,1.71,NA,NA,NA,NA,NA,NA,NA,NA,j,red,56d9ee15610fc00005b71979,2021-09-27_17h24.28.384,forced_choiceRT_color,2021.2.3,Win32,60.08171113,NA,NA,NA,NA,NA,NA,NA,3,Ontime,long,k,0,1.9338,9,3,39,2,1,NA,NA,NA,NA,NA,1933.8,111.9,0,k,j,1,1,93.05000000000008,f,f,0,memory_color_long,-0.5,-0.5,0.1119,FALSE,FALSE,FALSE,TRUE
NA,0.25,NA,NA,NA,NA,NA,NA,NA,NA,d,orange,56d9ee15610fc00005b71979,2021-09-27_17h24.28.384,forced_choiceRT_color,2021.2.3,Win32,60.08171113,NA,NA,NA,NA,NA,NA,NA,4,Ontime,long,d,1,2.0666,0,0,0,0,1,NA,NA,NA,NA,NA,2066.6000000000004,908.3000000000001,1,d,d,1,0,111.9,k,j,1,memory_color_long,-0.5,0.5,0.9083000000000001,FALSE,FALSE,FALSE,FALSE
NA,1.76,NA,NA,NA,NA,NA,NA,NA,NA,f,blue,56d9ee15610fc00005b71979,2021-09-27_17h24.28.384,forced_choiceRT_color,2021.2.3,Win32,60.08171113,NA,NA,NA,NA,NA,NA,NA,4,Ontime,long,f,1,2.0178,0,1,1,1,1,NA,NA,NA,NA,NA,2017.7999999999997,128.8999999999999,1,f,f,0,1,908.3000000000001,d,d,1,memory_color_long,0.5,-0.5,0.1288999999999999,FALSE,FALSE,FALSE,FALSE
NA,0.56,NA,NA,NA,NA,NA,NA,NA,NA,j,red,56d9ee15610fc00005b71979,2021-09-27_17h24.28.384,forced_choiceRT_color,2021.2.3,Win32,60.08171113,NA,NA,NA,NA,NA,NA,NA,4,Ontime,long,j,1,2.068,0,3,3,2,1,NA,NA,NA,NA,NA,2068,754,1,j,j,1,0,200.65,j,d,1,memory_color_long,-0.5,0.5,0.754,TRUE,FALSE,TRUE,FALSE
NA,1.05,NA,NA,NA,NA,NA,NA,NA,NA,f,blue,56d9ee15610fc00005b71979,2021-09-27_17h24.28.384,forced_choiceRT_color,2021.2.3,Win32,60.08171113,NA,NA,NA,NA,NA,NA,NA,4,Ontime,long,j,0,2.0512,1,1,5,1,1,NA,NA,NA,NA,NA,2051.2000000000003,500.6,0,j,f,1,1,317.15000000000003,k,k,0,memory_color_long,-0.5,-0.5,0.5006,FALSE,FALSE,FALSE,FALSE
NA,0.73,NA,NA,NA,NA,NA,NA,NA,NA,d,orange,56d9ee15610fc00005b71979,2021-09-27_17h24.28.384,forced_choiceRT_color,2021.2.3,Win32,60.08171113,NA,NA,NA,NA,NA,NA,NA,4,Ontime,long,d,1,2.0181,1,2,6,0,1,NA,NA,NA,NA,NA,2018.1,644.05,1,d,d,1,0,500.6,j,f,1,memory_color_long,-0.5,0.5,0.6440499999999999,FALSE,FALSE,FALSE,FALSE
NA,0.81,NA,NA,NA,NA,NA,NA,NA,NA,f,blue,56d9ee15610fc00005b71979,2021-09-27_17h24.28.384,forced_choiceRT_color,2021.2.3,Win32,60.08171113,NA,NA,NA,NA,NA,NA,NA,4,Ontime,long,f,1,1.9679,1,3,7,1,1,NA,NA,NA,NA,NA,1967.9,578.9499999999999,1,f,f,0,1,644.05,d,d,1,memory_color_long,0.5,-0.5,0.57895,FALSE,FALSE,FALSE,FALSE
NA,0.5,NA,NA,NA,NA,NA,NA,NA,NA,j,red,56d9ee15610fc00005b71979,2021-09-27_17h24.28.384,forced_choiceRT_color,2021.2.3,Win32,60.08171113,NA,NA,NA,NA,NA,NA,NA,4,Ontime,long,j,1,2.0678,2,0,8,2,1,NA,NA,NA,NA,NA,2067.8,783.9000000000001,1,j,j,1,1,578.9499999999999,f,f,1,memory_color_long,-0.5,-0.5,0.7839,FALSE,FALSE,FALSE,FALSE
NA,1.65,NA,NA,NA,NA,NA,NA,NA,NA,k,purple,56d9ee15610fc00005b71979,2021-09-27_17h24.28.384,forced_choiceRT_color,2021.2.3,Win32,60.08171113,NA,NA,NA,NA,NA,NA,NA,4,Ontime,long,k,1,2.0511,2,1,9,3,1,NA,NA,NA,NA,NA,2051.1,200.55,1,k,k,1,1,783.9000000000001,j,j,1,memory_color_long,-0.5,-0.5,0.20055,FALSE,FALSE,FALSE,FALSE
